File: herald_visualization/XRD Plotting Scripts (Riley)/Figures/(Fe,Co,Ni,Cu)S2/250206_Run1_20-70deg_40min.csv
2Theta,Intensity
20.0084,4101.0
20.0418,4207.0
20.0752,4094.0
20.1086,4166.0
20.142,4038.0
20.1755,4065.0
20.2089,4097.0
20.2423,4062.0
20.2757,4072.0
20.3092,3975.0
20.3426,3948.0
20.376,3944.0
20.4094,4036.0
20.4428,3888.0
20.4763,4015.0
20.5097,3920.0
20.5431,3964.0
20.5765,3889.0
20.61,3896.0
20.6434,3884.0
20.6768,3854.0
20.7102,3796.0
20.7437,3779.0
20.7771,3929.0
20.8105,3888.0
20.8439,3721.0
20.8773,3763.0
20.9108,3698.0
20.9442,3847.0
20.9776,3708.0
21.011,3662.0
21.0445,3564.0
21.0779,3600.0
21.1113,3626.0
21.1447,3612.0
21.1781,3595.0
21.2116,3583.0
21.245,3506.0
21.2784,3559.0
21.3118,3539.0
21.3453,3523.0
21.3787,3574.0
21.4121,3513.0
21.4455,3558.0
21.4789,3410.0
21.5124,3501.0
21.5458,3509.0
21.5792,3405.0
21.6126,3442.0
21.6461,3427.0
21.6795,3480.0
21.7129,3346.0
21.7463,3301.0
21.7798,3412.0
21.8132,3358.0
21.8466,3336.0
21.88,3323.0
21.9134,3371.0
21.9469,3159.0
21.9803,3358.0
22.0137,3332.0
22.0471,3229.0
22.0806,3313.0
22.114,3227.0
22.1474,3274.0
22.1808,3269.0
22.2142,3181.0
22.2477,3171.0
22.2811,3248.0
22.3145,3215.0
22.3479,3138.0
22.3814,3134.0
22.4148,3092.0
22.4482,3046.0
22.4816,3022.0
22.515,3113.0
22.5485,3092.0
22.5819,2945.0
22.6153,3021.0
22.6487,3027.0
22.6822,3033.0
22.7156,3059.0
22.749,2954.0
22.7824,2936.0
22.8158,2956.0
22.8493,2821.0
22.8827,2963.0
22.9161,2913.0
22.9495,2988.0
22.983,3008.0
23.0164,3025.0
23.0498,2882.0
23.0832,2914.0
23.1167,2896.0
23.1501,2765.0
23.1835,2846.0
23.2169,2882.0
23.2503,2930.0
23.2838,2867.0
23.3172,2777.0
23.3506,2757.0
23.384,2856.0
23.4175,2793.0
23.4509,2760.0
23.4843,2792.0
23.5177,2711.0
23.5511,2728.0
23.5846,2770.0
23.618,2751.0
23.6514,2679.0
23.6848,2706.0
23.7183,2746.0
23.7517,2636.0
23.7851,2744.0
23.8185,2659.0
23.8519,2516.0
23.8854,2573.0
23.9188,2729.0
23.9522,2648.0
23.9856,2611.0
24.0191,2541.0
24.0525,2697.0
24.0859,2605.0
24.1193,2642.0
24.1528,2595.0
24.1862,2494.0
24.2196,2648.0
24.253,2648.0
24.2864,2585.0
24.3199,2583.0
24.3533,2524.0
24.3867,2597.0
24.4201,2635.0
24.4536,2621.0
24.487,2480.0
24.5204,2546.0
24.5538,2512.0
24.5872,2550.0
24.6207,2456.0
24.6541,2468.0
24.6875,2455.0
24.7209,2478.0
24.7544,2518.0
24.7878,2564.0
24.8212,2506.0
24.8546,2449.0
24.888,2488.0
24.9215,2534.0
24.9549,2432.0
24.9883,2509.0
25.0217,2486.0
25.0552,2461.0
25.0886,2404.0
25.122,2499.0
25.1554,2438.0
25.1888,2526.0
25.2223,2449.0
25.2557,2518.0
25.2891,2575.0
25.3225,2398.0
25.356,2491.0
25.3894,2449.0
25.4228,2543.0
25.4562,2491.0
25.4897,2515.0
25.5231,2483.0
25.5565,2348.0
25.5899,2452.0
25.6233,2445.0
25.6568,2493.0
25.6902,2467.0
25.7236,2443.0
25.757,2421.0
25.7905,2436.0
25.8239,2474.0
25.8573,2383.0
25.8907,2382.0
25.9241,2415.0
25.9576,2464.0
25.991,2303.0
26.0244,2353.0
26.0578,2390.0
26.0913,2378.0
26.1247,2407.0
26.1581,2420.0
26.1915,2454.0
26.2249,2502.0
26.2584,2396.0
26.2918,2370.0
26.3252,2389.0
26.3586,2463.0
26.3921,2402.0
26.4255,2438.0
26.4589,2410.0
26.4923,2365.0
26.5258,2395.0
26.5592,2458.0
26.5926,2314.0
26.626,2431.0
26.6594,2328.0
26.6929,2391.0
26.7263,2441.0
26.7597,2514.0
26.7931,2401.0
26.8266,2498.0
26.86,2471.0
26.8934,2322.0
26.9268,2425.0
26.9602,2404.0
26.9937,2429.0
27.0271,2491.0
27.0605,2379.0
27.0939,2348.0
27.1274,2348.0
27.1608,2384.0
27.1942,2396.0
27.2276,2440.0
27.261,2376.0
27.2945,2362.0
27.3279,2490.0
27.3613,2365.0
27.3947,2333.0
27.4282,2376.0
27.4616,2439.0
27.495,2492.0
27.5284,2461.0
27.5618,2335.0
27.5953,2391.0
27.6287,2453.0
27.6621,2416.0
27.6955,2462.0
27.729,2478.0
27.7624,2469.0
27.7958,2381.0
27.8292,2460.0
27.8627,2437.0
27.8961,2429.0
27.9295,2396.0
27.9629,2404.0
27.9963,2298.0
28.0298,2393.0
28.0632,2321.0
28.0966,2247.0
28.13,2383.0
28.1635,2303.0
28.1969,2235.0
28.2303,2344.0
28.2637,2259.0
28.2971,2287.0
28.3306,2237.0
28.364,2252.0
28.3974,2189.0
28.4308,2304.0
28.4643,2217.0
28.4977,2245.0
28.5311,2281.0
28.5645,2292.0
28.5979,2376.0
28.6314,2279.0
28.6648,2291.0
28.6982,2343.0
28.7316,2297.0
28.7651,2257.0
28.7985,2360.0
28.8319,2272.0
28.8653,2308.0
28.8988,2342.0
28.9322,2383.0
28.9656,2485.0
28.999,2368.0
29.0324,2401.0
29.0659,2382.0
29.0993,2377.0
29.1327,2442.0
29.1661,2545.0
29.1996,2568.0
29.233,2562.0
29.2664,2609.0
29.2998,2568.0
29.3332,2563.0
29.3667,2578.0
29.4001,2630.0
29.4335,2507.0
29.4669,2545.0
29.5004,2440.0
29.5338,2444.0
29.5672,2383.0
29.6006,2364.0
29.634,2366.0
29.6675,2288.0
29.7009,2362.0
29.7343,2355.0
29.7677,2345.0
29.8012,2325.0
29.8346,2280.0
29.868,2343.0
29.9014,2346.0
29.9348,2380.0
29.9683,2368.0
30.0017,2364.0
30.0351,2318.0
30.0685,2332.0
30.102,2299.0
30.1354,2260.0
30.1688,2285.0
30.2022,2248.0
30.2357,2316.0
30.2691,2261.0
30.3025,2284.0
30.3359,2195.0
30.3693,2224.0
30.4028,2312.0
30.4362,2298.0
30.4696,2298.0
30.503,2286.0
30.5365,2239.0
30.5699,2255.0
30.6033,2210.0
30.6367,2220.0
30.6701,2216.0
30.7036,2185.0
30.737,2150.0
30.7704,2280.0
30.8038,2209.0
30.8373,2185.0
30.8707,2158.0
30.9041,2142.0
30.9375,2206.0
30.9709,2292.0
31.0044,2288.0
31.0378,2143.0
31.0712,2123.0
31.1046,2298.0
31.1381,2185.0
31.1715,2315.0
31.2049,2271.0
31.2383,2242.0
31.2718,2270.0
31.3052,2263.0
31.3386,2270.0
31.372,2315.0
31.4054,2226.0
31.4389,2333.0
31.4723,2379.0
31.5057,2386.0
31.5391,2377.0
31.5726,2520.0
31.606,2436.0
31.6394,2613.0
31.6728,2550.0
31.7062,2644.0
31.7397,2768.0
31.7731,2664.0
31.8065,2673.0
31.8399,2690.0
31.8734,2637.0
31.9068,2601.0
31.9402,2580.0
31.9736,2569.0
32.007,2628.0
32.0405,2527.0
32.0739,2486.0
32.1073,2464.0
32.1407,2582.0
32.1742,2538.0
32.2076,2442.0
32.241,2436.0
32.2744,2357.0
32.3078,2384.0
32.3413,2317.0
32.3747,2341.0
32.4081,2240.0
32.4415,2292.0
32.475,2285.0
32.5084,2267.0
32.5418,2254.0
32.5752,2268.0
32.6087,2347.0
32.6421,2440.0
32.6755,2401.0
32.7089,2391.0
32.7423,2468.0
32.7758,2488.0
32.8092,2630.0
32.8426,2706.0
32.876,2562.0
32.9095,2655.0
32.9429,2675.0
32.9763,2605.0
33.0097,2451.0
33.0431,2483.0
33.0766,2363.0
33.11,2327.0
33.1434,2333.0
33.1768,2381.0
33.2103,2187.0
33.2437,2178.0
33.2771,2185.0
33.3105,2095.0
33.3439,2065.0
33.3774,2053.0
33.4108,1992.0
33.4442,2054.0
33.4776,2085.0
33.5111,1971.0
33.5445,2045.0
33.5779,2013.0
33.6113,2078.0
33.6448,2051.0
33.6782,2135.0
33.7116,2127.0
33.745,1983.0
33.7784,2056.0
33.8119,2039.0
33.8453,2028.0
33.8787,2018.0
33.9121,1981.0
33.9456,2020.0
33.979,2088.0
34.0124,2005.0
34.0458,2052.0
34.0792,1984.0
34.1127,2019.0
34.1461,2050.0
34.1795,2025.0
34.2129,2025.0
34.2464,1974.0
34.2798,1904.0
34.3132,2072.0
34.3466,1965.0
34.38,1991.0
34.4135,2093.0
34.4469,1988.0
34.4803,1958.0
34.5137,2016.0
34.5472,1945.0
34.5806,1946.0
34.614,2034.0
34.6474,2101.0
34.6808,2035.0
34.7143,1958.0
34.7477,1993.0
34.7811,2050.0
34.8145,1993.0
34.848,2003.0
34.8814,1902.0
34.9148,1975.0
34.9482,2058.0
34.9817,1964.0
35.0151,2062.0
35.0485,1926.0
35.0819,1953.0
35.1153,2084.0
35.1488,2030.0
35.1822,2077.0
35.2156,1975.0
35.249,1967.0
35.2825,1973.0
35.3159,1962.0
35.3493,1957.0
35.3827,1938.0
35.4161,2008.0
35.4496,2018.0
35.483,2008.0
35.5164,1993.0
35.5498,1928.0
35.5833,1999.0
35.6167,2017.0
35.6501,1956.0
35.6835,2029.0
35.7169,1912.0
35.7504,1943.0
35.7838,1990.0
35.8172,2000.0
35.8506,1860.0
35.8841,1899.0
35.9175,1851.0
35.9509,1958.0
35.9843,1945.0
36.0178,1939.0
36.0512,1908.0
36.0846,1872.0
36.118,1936.0
36.1514,1961.0
36.1849,1890.0
36.2183,1919.0
36.2517,1921.0
36.2851,1989.0
36.3186,1919.0
36.352,1865.0
36.3854,1914.0
36.4188,1797.0
36.4522,1764.0
36.4857,1887.0
36.5191,1832.0
36.5525,1839.0
36.5859,1881.0
36.6194,1872.0
36.6528,1845.0
36.6862,1987.0
36.7196,1872.0
36.753,1930.0
36.7865,1862.0
36.8199,1833.0
36.8533,1847.0
36.8867,1970.0
36.9202,1969.0
36.9536,1881.0
36.987,1872.0
37.0204,1934.0
37.0538,1851.0
37.0873,1950.0
37.1207,1874.0
37.1541,1949.0
37.1875,1986.0
37.221,1907.0
37.2544,1940.0
37.2878,1934.0
37.3212,1922.0
37.3547,1901.0
37.3881,1920.0
37.4215,1877.0
37.4549,1889.0
37.4883,1952.0
37.5218,1924.0
37.5552,1800.0
37.5886,1925.0
37.622,1798.0
37.6555,1894.0
37.6889,1813.0
37.7223,1905.0
37.7557,1805.0
37.7891,1910.0
37.8226,1840.0
37.856,1882.0
37.8894,1890.0
37.9228,1898.0
37.9563,1816.0
37.9897,1859.0
38.0231,1896.0
38.0565,1938.0
38.0899,1960.0
38.1234,1808.0
38.1568,1908.0
38.1902,1820.0
38.2236,1875.0
38.2571,1847.0
38.2905,1833.0
38.3239,1923.0
38.3573,1847.0
38.3908,1926.0
38.4242,1894.0
38.4576,1903.0
38.491,1894.0
38.5244,1847.0
38.5579,1830.0
38.5913,1946.0
38.6247,1854.0
38.6581,1917.0
38.6916,1923.0
38.725,1868.0
38.7584,1935.0
38.7918,1908.0
38.8252,1897.0
38.8587,1895.0
38.8921,1886.0
38.9255,1977.0
38.9589,1970.0
38.9924,1886.0
39.0258,1867.0
39.0592,1937.0
39.0926,1903.0
39.126,1915.0
39.1595,1872.0
39.1929,1959.0
39.2263,1844.0
39.2597,1887.0
39.2932,1880.0
39.3266,1926.0
39.36,1910.0
39.3934,1876.0
39.4269,1923.0
39.4603,1879.0
39.4937,1883.0
39.5271,1912.0
39.5605,1908.0
39.594,1843.0
39.6274,1876.0
39.6608,1766.0
39.6942,1880.0
39.7277,1891.0
39.7611,1808.0
39.7945,1840.0
39.8279,1839.0
39.8613,1909.0
39.8948,1925.0
39.9282,1801.0
39.9616,1873.0
39.995,1921.0
40.0285,2031.0
40.0619,1849.0
40.0953,1871.0
40.1287,1941.0
40.1621,1873.0
40.1956,1892.0
40.229,1888.0
40.2624,1854.0
40.2958,1917.0
40.3293,1940.0
40.3627,1896.0
40.3961,1906.0
40.4295,1918.0
40.4629,1959.0
40.4964,1973.0
40.5298,1958.0
40.5632,1896.0
40.5966,1851.0
40.6301,1926.0
40.6635,1857.0
40.6969,1839.0
40.7303,1923.0
40.7638,1876.0
40.7972,1838.0
40.8306,1809.0
40.864,1844.0
40.8974,1854.0
40.9309,1862.0
40.9643,1814.0
40.9977,1879.0
41.0311,1843.0
41.0646,1798.0
41.098,1841.0
41.1314,1819.0
41.1648,1922.0
41.1982,1849.0
41.2317,1840.0
41.2651,1859.0
41.2985,1934.0
41.3319,1946.0
41.3654,1800.0
41.3988,1872.0
41.4322,1901.0
41.4656,2020.0
41.499,1875.0
41.5325,1859.0
41.5659,1831.0
41.5993,1792.0
41.6327,1820.0
41.6662,1883.0
41.6996,1893.0
41.733,1842.0
41.7664,1831.0
41.7999,1875.0
41.8333,1887.0
41.8667,1838.0
41.9001,1954.0
41.9335,1875.0
41.967,1799.0
42.0004,1846.0
42.0338,1887.0
42.0672,1852.0
42.1007,1832.0
42.1341,1884.0
42.1675,1921.0
42.2009,1878.0
42.2343,1863.0
42.2678,1953.0
42.3012,1843.0
42.3346,1827.0
42.368,1890.0
42.4015,1965.0
42.4349,1842.0
42.4683,1836.0
42.5017,1938.0
42.5351,1909.0
42.5686,1958.0
42.602,1938.0
42.6354,1991.0
42.6688,1872.0
42.7023,1919.0
42.7357,1843.0
42.7691,1911.0
42.8025,1987.0
42.8359,1974.0
42.8694,1911.0
42.9028,1894.0
42.9362,1925.0
42.9696,1884.0
43.0031,1945.0
43.0365,1998.0
43.0699,1967.0
43.1033,1960.0
43.1368,2062.0
43.1702,2055.0
43.2036,2019.0
43.237,2050.0
43.2704,2001.0
43.3039,1982.0
43.3373,2008.0
43.3707,1978.0
43.4041,1994.0
43.4376,1978.0
43.471,1942.0
43.5044,1883.0
43.5378,1975.0
43.5712,1945.0
43.6047,2027.0
43.6381,1942.0
43.6715,2008.0
43.7049,1997.0
43.7384,2070.0
43.7718,1955.0
43.8052,1930.0
43.8386,2060.0
43.872,1984.0
43.9055,2075.0
43.9389,2028.0
43.9723,2074.0
44.0057,2039.0
44.0392,1941.0
44.0726,1956.0
44.106,1915.0
44.1394,1965.0
44.1729,1992.0
44.2063,2023.0
44.2397,1964.0
44.2731,1981.0
44.3065,2061.0
44.34,1942.0
44.3734,2007.0
44.4068,2022.0
44.4402,1972.0
44.4737,1939.0
44.5071,1986.0
44.5405,1976.0
44.5739,2007.0
44.6073,2044.0
44.6408,2003.0
44.6742,1990.0
44.7076,1879.0
44.741,2037.0
44.7745,1860.0
44.8079,1867.0
44.8413,1996.0
44.8747,1908.0
44.9081,1981.0
44.9416,1906.0
44.975,1985.0
45.0084,1939.0
45.0418,1921.0
45.0753,1934.0
45.1087,1934.0
45.1421,1910.0
45.1755,1912.0
45.2089,1972.0
45.2424,1918.0
45.2758,1898.0
45.3092,1962.0
45.3426,1957.0
45.3761,1908.0
45.4095,1920.0
45.4429,1859.0
45.4763,1972.0
45.5098,1944.0
45.5432,1887.0
45.5766,1937.0
45.61,2039.0
45.6434,1994.0
45.6769,2003.0
45.7103,2060.0
45.7437,2051.0
45.7771,2043.0
45.8106,2059.0
45.844,1990.0
45.8774,1994.0
45.9108,2017.0
45.9442,1980.0
45.9777,1931.0
46.0111,2009.0
46.0445,1980.0
46.0779,2018.0
46.1114,2002.0
46.1448,1942.0
46.1782,2018.0
46.2116,1981.0
46.245,1984.0
46.2785,1884.0
46.3119,2098.0
46.3453,1977.0
46.3787,2002.0
46.4122,1996.0
46.4456,2002.0
46.479,2000.0
46.5124,2019.0
46.5459,2055.0
46.5793,2002.0
46.6127,2048.0
46.6461,2027.0
46.6795,2081.0
46.713,2072.0
46.7464,2101.0
46.7798,2067.0
46.8132,2121.0
46.8467,1988.0
46.8801,2163.0
46.9135,2141.0
46.9469,2116.0
46.9803,2117.0
47.0138,2096.0
47.0472,2090.0
47.0806,2157.0
47.114,2071.0
47.1475,2155.0
47.1809,2147.0
47.2143,2141.0
47.2477,2085.0
47.2811,2079.0
47.3146,2114.0
47.348,2173.0
47.3814,2189.0
47.4148,2222.0
47.4483,2188.0
47.4817,2212.0
47.5151,2181.0
47.5485,2292.0
47.5819,2284.0
47.6154,2294.0
47.6488,2334.0
47.6822,2392.0
47.7156,2431.0
47.7491,2496.0
47.7825,2536.0
47.8159,2461.0
47.8493,2657.0
47.8828,2688.0
47.9162,2759.0
47.9496,2791.0
47.983,2788.0
48.0164,2756.0
48.0499,2769.0
48.0833,2727.0
48.1167,2554.0
48.1501,2695.0
48.1836,2550.0
48.217,2525.0
48.2504,2420.0
48.2838,2428.0
48.3172,2274.0
48.3507,2376.0
48.3841,2351.0
48.4175,2294.0
48.4509,2273.0
48.4844,2208.0
48.5178,2222.0
48.5512,2253.0
48.5846,2091.0
48.618,2223.0
48.6515,2161.0
48.6849,2257.0
48.7183,2247.0
48.7517,2242.0
48.7852,2168.0
48.8186,2378.0
48.852,2241.0
48.8854,2287.0
48.9189,2162.0
48.9523,2184.0
48.9857,2161.0
49.0191,2149.0
49.0525,2154.0
49.086,2140.0
49.1194,2093.0
49.1528,2170.0
49.1862,2135.0
49.2197,2035.0
49.2531,2123.0
49.2865,2143.0
49.3199,2000.0
49.3533,2116.0
49.3868,2033.0
49.4202,2005.0
49.4536,1996.0
49.487,2020.0
49.5205,2082.0
49.5539,2051.0
49.5873,1974.0
49.6207,2046.0
49.6541,2138.0
49.6876,2078.0
49.721,2004.0
49.7544,1964.0
49.7878,2017.0
49.8213,2097.0
49.8547,2066.0
49.8881,2063.0
49.9215,2092.0
49.9549,2038.0
49.9884,2032.0
50.0218,2080.0
50.0552,2070.0
50.0886,2067.0
50.1221,2071.0
50.1555,2161.0
50.1889,2093.0
50.2223,2091.0
50.2558,2013.0
50.2892,2050.0
50.3226,2062.0
50.356,2172.0
50.3894,2163.0
50.4229,2044.0
50.4563,2027.0
50.4897,2100.0
50.5231,2097.0
50.5566,2004.0
50.59,1981.0
50.6234,1974.0
50.6568,2086.0
50.6902,2086.0
50.7237,2143.0
50.7571,2074.0
50.7905,2044.0
50.8239,2126.0
50.8574,2060.0
50.8908,2083.0
50.9242,2085.0
50.9576,2088.0
50.991,1978.0
51.0245,2075.0
51.0579,2111.0
51.0913,2066.0
51.1247,2001.0
51.1582,2063.0
51.1916,2111.0
51.225,2061.0
51.2584,2064.0
51.2919,2017.0
51.3253,2119.0
51.3587,2050.0
51.3921,2161.0
51.4255,2072.0
51.459,2034.0
51.4924,2056.0
51.5258,2112.0
51.5592,2088.0
51.5927,2169.0
51.6261,2076.0
51.6595,2061.0
51.6929,2072.0
51.7263,2145.0
51.7598,2096.0
51.7932,2121.0
51.8266,2159.0
51.86,2121.0
51.8935,2125.0
51.9269,2225.0
51.9603,2205.0
51.9937,2295.0
52.0271,2217.0
52.0606,2268.0
52.094,2190.0
52.1274,2264.0
52.1608,2203.0
52.1943,2224.0
52.2277,2247.0
52.2611,2191.0
52.2945,2255.0
52.3279,2374.0
52.3614,2371.0
52.3948,2240.0
52.4282,2329.0
52.4616,2355.0
52.4951,2360.0
52.5285,2454.0
52.5619,2327.0
52.5953,2460.0
52.6288,2512.0
52.6622,2498.0
52.6956,2441.0
52.729,2539.0
52.7624,2550.0
52.7959,2571.0
52.8293,2510.0
52.8627,2533.0
52.8961,2448.0
52.9296,2488.0
52.963,2457.0
52.9964,2418.0
53.0298,2412.0
53.0632,2463.0
53.0967,2389.0
53.1301,2417.0
53.1635,2441.0
53.1969,2389.0
53.2304,2331.0
53.2638,2402.0
53.2972,2392.0
53.3306,2342.0
53.364,2336.0
53.3975,2300.0
53.4309,2371.0
53.4643,2337.0
53.4977,2278.0
53.5312,2292.0
53.5646,2348.0
53.598,2188.0
53.6314,2314.0
53.6649,2252.0
53.6983,2239.0
53.7317,2163.0
53.7651,2254.0
53.7985,2212.0
53.832,2236.0
53.8654,2189.0
53.8988,2122.0
53.9322,2171.0
53.9657,2143.0
53.9991,2205.0
54.0325,2193.0
54.0659,2200.0
54.0993,2237.0
54.1328,2236.0
54.1662,2184.0
54.1996,2126.0
54.233,2240.0
54.2665,2235.0
54.2999,2069.0
54.3333,2179.0
54.3667,2157.0
54.4001,2163.0
54.4336,2296.0
54.467,2141.0
54.5004,2151.0
54.5338,2203.0
54.5673,2163.0
54.6007,2165.0
54.6341,2161.0
54.6675,2145.0
54.701,2170.0
54.7344,2254.0
54.7678,2207.0
54.8012,2150.0
54.8346,2188.0
54.8681,2165.0
54.9015,2159.0
54.9349,2096.0
54.9683,2130.0
55.0018,2096.0
55.0352,2123.0
55.0686,2198.0
55.102,2193.0
55.1354,2232.0
55.1689,2162.0
55.2023,2108.0
55.2357,2178.0
55.2691,2182.0
55.3026,2208.0
55.336,2229.0
55.3694,2094.0
55.4028,2206.0
55.4362,2229.0
55.4697,2161.0
55.5031,2226.0
55.5365,2227.0
55.5699,2185.0
55.6034,2062.0
55.6368,2143.0
55.6702,2157.0
55.7036,2202.0
55.737,2172.0
55.7705,2256.0
55.8039,2215.0
55.8373,2151.0
55.8707,2225.0
55.9042,2222.0
55.9376,2216.0
55.971,2079.0
56.0044,2143.0
56.0379,2192.0
56.0713,2234.0
56.1047,2176.0
56.1381,2261.0
56.1715,2278.0
56.205,2249.0
56.2384,2276.0
56.2718,2154.0
56.3052,2242.0
56.3387,2197.0
56.3721,2243.0
56.4055,2264.0
56.4389,2284.0
56.4723,2274.0
56.5058,2265.0
56.5392,2209.0
56.5726,2272.0
56.606,2285.0
56.6395,2127.0
56.6729,2251.0
56.7063,2184.0
56.7397,2163.0
56.7731,2177.0
56.8066,2260.0
56.84,2182.0
56.8734,2205.0
56.9068,2254.0
56.9403,2192.0
56.9737,2269.0
57.0071,2267.0
57.0405,2189.0
57.074,2256.0
57.1074,2235.0
57.1408,2204.0
57.1742,2114.0
57.2076,2292.0
57.2411,2383.0
57.2745,2236.0
57.3079,2294.0
57.3413,2355.0
57.3748,2313.0
57.4082,2253.0
57.4416,2357.0
57.475,2335.0
57.5084,2333.0
57.5419,2416.0
57.5753,2329.0
57.6087,2378.0
57.6421,2301.0
57.6756,2254.0
57.709,2159.0
57.7424,2182.0
57.7758,2281.0
57.8092,2191.0
57.8427,2207.0
57.8761,2266.0
57.9095,2156.0
57.9429,2282.0
57.9764,2236.0
58.0098,2171.0
58.0432,2212.0
58.0766,2217.0
58.11,2226.0
58.1435,2278.0
58.1769,2336.0
58.2103,2228.0
58.2437,2233.0
58.2772,2218.0
58.3106,2304.0
58.344,2294.0
58.3774,2281.0
58.4109,2266.0
58.4443,2380.0
58.4777,2389.0
58.5111,2323.0
58.5445,2288.0
58.578,2271.0
58.6114,2352.0
58.6448,2393.0
58.6782,2431.0
58.7117,2457.0
58.7451,2407.0
58.7785,2498.0
58.8119,2360.0
58.8453,2389.0
58.8788,2449.0
58.9122,2412.0
58.9456,2406.0
58.979,2486.0
59.0125,2540.0
59.0459,2449.0
59.0793,2540.0
59.1127,2431.0
59.1461,2445.0
59.1796,2495.0
59.213,2600.0
59.2464,2510.0
59.2798,2520.0
59.3133,2659.0
59.3467,2556.0
59.3801,2629.0
59.4135,2625.0
59.447,2759.0
59.4804,2555.0
59.5138,2563.0
59.5472,2579.0
59.5806,2619.0
59.6141,2533.0
59.6475,2526.0
59.6809,2472.0
59.7143,2473.0
59.7478,2485.0
59.7812,2463.0
59.8146,2487.0
59.848,2396.0
59.8814,2417.0
59.9149,2452.0
59.9483,2371.0
59.9817,2314.0
60.0151,2378.0
60.0486,2353.0
60.082,2257.0
60.1154,2247.0
60.1488,2222.0
60.1822,2266.0
60.2157,2202.0
60.2491,2350.0
60.2825,2249.0
60.3159,2212.0
60.3494,2312.0
60.3828,2286.0
60.4162,2264.0
60.4496,2371.0
60.483,2365.0
60.5165,2362.0
60.5499,2304.0
60.5833,2249.0
60.6167,2204.0
60.6502,2308.0
60.6836,2272.0
60.717,2426.0
60.7504,2383.0
60.7839,2279.0
60.8173,2170.0
60.8507,2369.0
60.8841,2363.0
60.9175,2279.0
60.951,2166.0
60.9844,2267.0
61.0178,2269.0
61.0512,2208.0
61.0847,2226.0
61.1181,2311.0
61.1515,2334.0
61.1849,2272.0
61.2183,2228.0
61.2518,2220.0
61.2852,2202.0
61.3186,2305.0
61.352,2247.0
61.3855,2177.0
61.4189,2248.0
61.4523,2196.0
61.4857,2252.0
61.5191,2223.0
61.5526,2267.0
61.586,2268.0
61.6194,2320.0
61.6528,2243.0
61.6863,2350.0
61.7197,2365.0
61.7531,2259.0
61.7865,2248.0
61.82,2280.0
61.8534,2295.0
61.8868,2212.0
61.9202,2250.0
61.9536,2232.0
61.9871,2211.0
62.0205,2253.0
62.0539,2337.0
62.0873,2273.0
62.1208,2217.0
62.1542,2267.0
62.1876,2253.0
62.221,2314.0
62.2544,2256.0
62.2879,2216.0
62.3213,2256.0
62.3547,2327.0
62.3881,2260.0
62.4216,2155.0
62.455,2322.0
62.4884,2323.0
62.5218,2256.0
62.5552,2305.0
62.5887,2227.0
62.6221,2237.0
62.6555,2260.0
62.6889,2291.0
62.7224,2296.0
62.7558,2302.0
62.7892,2318.0
62.8226,2341.0
62.856,2239.0
62.8895,2273.0
62.9229,2299.0
62.9563,2284.0
62.9897,2292.0
63.0232,2373.0
63.0566,2256.0
63.09,2161.0
63.1234,2332.0
63.1569,2245.0
63.1903,2368.0
63.2237,2317.0
63.2571,2319.0
63.2905,2269.0
63.324,2238.0
63.3574,2270.0
63.3908,2358.0
63.4242,2245.0
63.4577,2297.0
63.4911,2326.0
63.5245,2175.0
63.5579,2305.0
63.5913,2369.0
63.6248,2363.0
63.6582,2308.0
63.6916,2339.0
63.725,2409.0
63.7585,2312.0
63.7919,2296.0
63.8253,2292.0
63.8587,2355.0
63.8921,2325.0
63.9256,2310.0
63.959,2373.0
63.9924,2296.0
64.0258,2289.0
64.0593,2276.0
64.0927,2280.0
64.1261,2226.0
64.1595,2294.0
64.193,2321.0
64.2264,2265.0
64.2598,2360.0
64.2932,2217.0
64.3266,2402.0
64.3601,2247.0
64.3935,2310.0
64.4269,2335.0
64.4603,2418.0
64.4938,2255.0
64.5272,2349.0
64.5606,2240.0
64.594,2363.0
64.6274,2416.0
64.6609,2219.0
64.6943,2328.0
64.7277,2322.0
64.7611,2295.0
64.7946,2283.0
64.828,2279.0
64.8614,2383.0
64.8948,2308.0
64.9282,2381.0
64.9617,2329.0
64.9951,2312.0
65.0285,2408.0
65.0619,2276.0
65.0954,2339.0
65.1288,2329.0
65.1622,2290.0
65.1956,2345.0
65.229,2220.0
65.2625,2334.0
65.2959,2317.0
65.3293,2376.0
65.3627,2323.0
65.3962,2359.0
65.4296,2317.0
65.463,2244.0
65.4964,2383.0
65.5299,2352.0
65.5633,2311.0
65.5967,2259.0
65.6301,2342.0
65.6635,2284.0
65.697,2345.0
65.7304,2360.0
65.7638,2329.0
65.7972,2259.0
65.8307,2238.0
65.8641,2325.0
65.8975,2357.0
65.9309,2260.0
65.9643,2272.0
65.9978,2299.0
66.0312,2342.0
66.0646,2368.0
66.098,2409.0
66.1315,2358.0
66.1649,2389.0
66.1983,2306.0
66.2317,2351.0
66.2651,2331.0
66.2986,2320.0
66.332,2312.0
66.3654,2365.0
66.3988,2301.0
66.4323,2411.0
66.4657,2433.0
66.4991,2352.0
66.5325,2432.0
66.566,2285.0
66.5994,2401.0
66.6328,2311.0
66.6662,2379.0
66.6996,2397.0
66.7331,2354.0
66.7665,2401.0
66.7999,2266.0
66.8333,2290.0
66.8668,2396.0
66.9002,2294.0
66.9336,2299.0
66.967,2392.0
67.0004,2342.0
67.0339,2289.0
67.0673,2452.0
67.1007,2392.0
67.1341,2283.0
67.1676,2318.0
67.201,2475.0
67.2344,2460.0
67.2678,2358.0
67.3012,2362.0
67.3347,2399.0
67.3681,2391.0
67.4015,2460.0
67.4349,2355.0
67.4684,2371.0
67.5018,2413.0
67.5352,2428.0
67.5686,2448.0
67.602,2412.0
67.6355,2352.0
67.6689,2431.0
67.7023,2455.0
67.7357,2323.0
67.7692,2410.0
67.8026,2357.0
67.836,2254.0
67.8694,2393.0
67.9029,2245.0
67.9363,2424.0
67.9697,2375.0
68.0031,2312.0
68.0365,2280.0
68.07,2348.0
68.1034,2352.0
68.1368,2370.0
68.1702,2358.0
68.2037,2368.0
68.2371,2379.0
68.2705,2412.0
68.3039,2341.0
68.3373,2426.0
68.3708,2444.0
68.4042,2516.0
68.4376,2331.0
68.471,2287.0
68.5045,2388.0
68.5379,2317.0
68.5713,2410.0
68.6047,2380.0
68.6381,2396.0
68.6716,2351.0
68.705,2433.0
68.7384,2389.0
68.7718,2336.0
68.8053,2379.0
68.8387,2397.0
68.8721,2368.0
68.9055,2425.0
68.939,2370.0
68.9724,2412.0
69.0058,2417.0
69.0392,2445.0
69.0726,2442.0
69.1061,2465.0
69.1395,2522.0
69.1729,2385.0
69.2063,2457.0
69.2398,2330.0
69.2732,2402.0
69.3066,2410.0
69.34,2537.0
69.3734,2433.0
69.4069,2401.0
69.4403,2487.0
69.4737,2551.0
69.5071,2503.0
69.5406,2296.0
69.574,2424.0
69.6074,2337.0
69.6408,2475.0
69.6742,2404.0
69.7077,2517.0
69.7411,2471.0
69.7745,2507.0
69.8079,2435.0
69.8414,2461.0
69.8748,2522.0
69.9082,2521.0
69.9416,2494.0
69.975,2486.0
69.9918,2518.0