File: herald_visualization/XRD Plotting Scripts (Riley)/Figures/(Fe,Co,Ni,Cu)S2/S.csv
2Theta (degrees),Intensity
11.2038,8.12543
14.229,0.0323354
15.0714,16.8944
15.2533,6.33845
17.9498,2.33364
20.7842,1.95224
21.3398,13.5106
22.2068,13.6296
22.5166,100.0
24.4274,6.99313
25.3895,37.2007
25.7419,2.50711
25.9815,23.8613
27.1307,25.0043
27.156,11.2053
27.2641,11.9335
27.9208,19.223
28.3809,14.5408
28.6836,1.17083
30.4117,0.0232814
30.7857,18.5064
31.4696,0.0558224
32.4544,2.93584
32.7442,1.02849
33.2813,2.93467
33.5101,9.96306
34.0571,3.58321
34.1525,0.166009
35.1065,7.30493
35.354,4.48144
36.0288,0.0024226
36.206,14.0237
36.36,1.5421
36.7974,4.28869
36.8457,0.128148
37.0794,4.81547
38.6756,6.74374
38.7636,0.00143448
38.945,0.404374
39.4274,0.0849036
39.6844,0.416601
39.8922,0.249032
39.9103,1.77667
41.2551,0.783706
41.3361,3.70135
41.7945,6.59293
41.9005,8.435
42.2947,2.59457
42.3196,0.0198688
42.6993,1.52524
42.8121,0.0222356
43.444,1.13319
43.4684,0.293941
43.6236,0.00722932
43.6512,0.485055
43.98,0.0458102
44.0901,1.89341
44.1035,0.721753
44.4984,4.73149
44.6859,0.0279344
45.3074,4.32762
45.9144,0.0413513
45.9668,1.97784
46.3364,0.0659441
46.4566,9.11594
46.5622,2.02978
46.7084,3.41585
46.9256,1.31781
47.1334,0.460859
47.1715,0.144882
48.0223,1.0546
48.3586,0.316381
48.5324,1.48905
48.7907,1.27016
48.9271,2.68492
48.9494,0.0243514
49.0556,5.58089
49.4401,0.649332
49.9927,0.0580781
50.0631,0.047343
50.0926,16.9518
50.5872,0.593596
50.6699,9.97915
51.4424,8.37948
51.9256,2.50486
52.1406,1.17284
52.1458,5.797
52.827,12.0688
52.865,0.0237885
52.8853,0.0169906
52.9123,0.00580472
53.3716,0.284595
53.4344,0.0997368
53.9667,2.27442
54.0012,2.41922
54.1618,1.32544
54.3257,0.232325
54.442,0.919978
54.5289,0.0568309
54.5361,7.59345
54.7739,1.07891
55.059,4.17768
55.0647,0.394358
55.2796,1.93671
55.3727,6.19625
55.8098,0.0326913
55.9282,0.467583
55.9529,2.50563
56.0086,0.0140962
56.0682,0.0409262
56.1319,0.614672
56.2466,6.82228
56.3421,0.445544
56.434,2.8232
56.5345,2.62782
57.6979,0.00300844
57.7233,2.37457
57.8379,0.769033
58.1034,0.0855683
58.2368,0.637816
58.429,0.0408865
58.5189,0.277768
58.5545,0.253064
58.7195,1.90477
58.7392,2.0756
59.1316,0.00137697
59.3099,0.422345
59.3939,2.53845
59.68,0.267704
59.7687,0.530611
60.2084,0.018232
60.2433,0.0708621
60.4316,2.76514
60.6556,0.385368
60.7315,0.351839
60.8311,1.42676
61.2692,3.11746
61.4754,0.191064
61.5626,0.140838
61.7342,1.43411
61.7744,0.642955
62.0029,0.161913
62.2739,0.354603
63.1466,1.79274
63.2748,1.42641
63.2793,4.44268
63.3181,1.02161
63.712,1.6852
63.8596,0.167386
63.9455,0.0207277
64.1287,0.696377
64.2236,3.07591
64.2919,0.038602
64.3668,1.65874
64.5466,0.521623
64.6138,2.91509
65.156,0.0868613
65.2635,1.42037
65.4065,0.0924908
65.4907,0.0643706
65.5161,0.795051
65.5241,0.0718494
65.6197,0.57408
65.6904,0.753058
65.7037,0.14067
66.1575,0.0175011
66.4905,0.0879093
66.5455,0.496913
66.6177,0.300264
66.6581,0.595323
66.7123,0.348753
66.7306,0.88363
67.115,0.313499
67.1844,1.24125
67.2081,1.11279
67.2889,0.770572
67.4333,1.20325
67.4837,5.10764
67.9042,0.849746
67.9586,0.156081
68.0621,1.76967
68.6309,0.464682
69.01,0.266669
69.0289,0.00518567
69.0425,0.315118
69.374,0.156464
69.4399,0.960513
69.5167,1.03673
69.649,0.186398
69.7137,0.0540857
69.8109,0.886241
69.8825,0.0308332
70.0166,1.14486
70.1549,0.736142
70.2362,0.955285
70.2605,1.13326
70.2608,0.905811
70.3966,0.236124
70.4182,0.838074
70.5836,3.64381
70.7924,3.40522
70.8458,0.130787
70.895,1.35364
70.9544,0.00392975
70.9722,0.0200713
71.1221,0.207608
71.4844,0.971938
71.7045,0.00628333
71.7437,0.0590928
71.809,3.27651
71.8292,0.0725012
71.9296,0.0323241
72.018,0.274998
72.0484,0.00244123
72.2169,0.028896
72.2973,0.967213
72.3397,1.00572
72.4372,1.84631
73.0466,0.687973
73.1024,0.692023
73.3987,2.24484
73.5633,1.1979
73.7165,0.137095
73.8869,0.258542
73.9557,0.0259188
74.1966,0.119213
74.3333,0.575353
74.73,0.0212933
74.7892,0.00374895
74.9163,0.0437714
75.0006,0.0120612
75.2175,1.42083
75.4735,0.718601
75.6738,0.253281
75.7528,1.42142
75.8403,0.037074
75.9945,0.0408793
75.9982,1.12211
76.1512,0.00259796
76.3763,0.0175387
76.415,0.0338277
76.525,0.00219932
76.6137,0.450716
76.8446,0.42891
76.9357,2.38624
77.2187,0.474781
77.2478,0.0908295
77.2847,0.208046
77.752,0.415498
77.9565,0.30841
78.247,0.016083
78.2694,0.704671
78.2855,0.171172
78.4039,0.350198
78.4816,0.539942
78.7918,0.0315654
78.8328,0.067425
78.9771,0.00143556
79.4113,0.0849565
79.4731,0.241443
79.4923,0.086631
79.5509,0.629758
79.972,0.427473
80.203,1.71151
80.3042,1.37332
80.3998,0.276328
80.521,0.170899
80.5341,0.0361498
80.7423,0.139575
80.8303,0.032704
80.8974,0.260056
81.1299,0.450884
81.168,0.623627
81.5281,0.131029
81.6317,1.23951
81.6675,0.142871
81.7864,0.169794
81.8222,0.423995
81.9484,0.476408
81.9892,0.458859
82.0184,0.0145038
82.0257,0.953086
82.083,0.341404
82.1103,0.434717
82.4886,0.00992157
82.6702,0.193135
82.8012,1.00676
82.8398,0.188403
82.9469,0.389682
83.0496,0.258213
83.1484,0.269158
83.1689,0.0337213
83.242,0.187738
83.3184,0.0367282
83.4046,0.07357
83.5379,0.253931
83.5893,0.222572
83.6272,0.00472411
83.7898,0.550044
83.8204,0.136273
83.8672,0.133716
84.3749,0.140794
84.428,0.0642662
84.6374,0.16028
84.7375,0.0222971
84.8122,1.25005
84.8525,0.260841
84.9369,0.00457891
85.2879,0.387876
85.2912,0.175984
85.3088,0.00768364
85.5094,0.0821729
85.5263,0.0555625
85.8604,0.0278084
86.043,0.93953
86.0527,1.06576
86.0893,0.0659501
86.1104,0.17299
86.1398,0.169799
86.2062,1.63921
86.2592,0.0570172
86.4364,0.390466
86.5751,0.275148
86.8323,0.0726423
87.4414,1.67525
87.4554,0.112126
87.518,0.0802177
87.5946,0.0133582
87.6244,0.235962
87.6917,1.09848
88.2263,0.706558
88.2602,0.0845488
88.2883,0.413988
88.4415,0.401236
88.4589,0.338333
88.5005,0.0942604
88.5308,0.0725802
88.6068,0.183458
88.8978,2.39677
89.006,0.0318783
89.0826,0.0938639
89.2138,0.0945757
89.4432,0.122638
89.5472,0.056867
89.5714,0.207025
89.5917,0.00596846
89.7245,0.243954
89.7549,0.351101
89.8055,0.350062
89.9185,0.328734
89.9542,0.883446
89.9846,0.276081
89.9918,0.129046