File: herald_visualization/Delia_Scripts/MnF3/240920-MnF3_1to1_KS6Lgraphite-100min_milled-20-70deg_40min.csv
2Theta,Intensity
20.0084,4505.0
20.0418,4392.0
20.0752,4507.0
20.1086,4303.0
20.142,4353.0
20.1755,4400.0
20.2089,4530.0
20.2423,4280.0
20.2757,4334.0
20.3092,4467.0
20.3426,4282.0
20.376,4326.0
20.4094,4218.0
20.4428,4262.0
20.4763,4332.0
20.5097,4314.0
20.5431,4270.0
20.5765,4301.0
20.61,4197.0
20.6434,4371.0
20.6768,4121.0
20.7102,4116.0
20.7437,4183.0
20.7771,4248.0
20.8105,4188.0
20.8439,4207.0
20.8773,4146.0
20.9108,4056.0
20.9442,3952.0
20.9776,4044.0
21.011,4059.0
21.0445,4096.0
21.0779,4026.0
21.1113,4000.0
21.1447,4104.0
21.1781,3926.0
21.2116,3871.0
21.245,3899.0
21.2784,3925.0
21.3118,3850.0
21.3453,3934.0
21.3787,3891.0
21.4121,3934.0
21.4455,3890.0
21.4789,3944.0
21.5124,3877.0
21.5458,3850.0
21.5792,3789.0
21.6126,3807.0
21.6461,3872.0
21.6795,3835.0
21.7129,3824.0
21.7463,3750.0
21.7798,3802.0
21.8132,3642.0
21.8466,3693.0
21.88,3700.0
21.9134,3700.0
21.9469,3679.0
21.9803,3789.0
22.0137,3756.0
22.0471,3761.0
22.0806,3705.0
22.114,3637.0
22.1474,3757.0
22.1808,3742.0
22.2142,3514.0
22.2477,3744.0
22.2811,3625.0
22.3145,3616.0
22.3479,3474.0
22.3814,3594.0
22.4148,3693.0
22.4482,3715.0
22.4816,3637.0
22.515,3560.0
22.5485,3557.0
22.5819,3579.0
22.6153,3616.0
22.6487,3596.0
22.6822,3618.0
22.7156,3763.0
22.749,3636.0
22.7824,3697.0
22.8158,3858.0
22.8493,3890.0
22.8827,3910.0
22.9161,4043.0
22.9495,4066.0
22.983,4165.0
23.0164,4184.0
23.0498,4224.0
23.0832,4273.0
23.1167,4099.0
23.1501,4230.0
23.1835,3946.0
23.2169,3930.0
23.2503,3900.0
23.2838,3844.0
23.3172,3822.0
23.3506,3776.0
23.384,3692.0
23.4175,3634.0
23.4509,3774.0
23.4843,3557.0
23.5177,3700.0
23.5511,3705.0
23.5846,3844.0
23.618,3834.0
23.6514,3694.0
23.6848,3804.0
23.7183,3991.0
23.7517,4043.0
23.7851,3944.0
23.8185,4212.0
23.8519,4073.0
23.8854,4205.0
23.9188,4356.0
23.9522,4306.0
23.9856,4303.0
24.0191,4364.0
24.0525,4497.0
24.0859,4404.0
24.1193,4294.0
24.1528,4146.0
24.1862,4026.0
24.2196,3996.0
24.253,4000.0
24.2864,3875.0
24.3199,3857.0
24.3533,3814.0
24.3867,3784.0
24.4201,3656.0
24.4536,3629.0
24.487,3605.0
24.5204,3532.0
24.5538,3458.0
24.5872,3340.0
24.6207,3258.0
24.6541,3294.0
24.6875,3189.0
24.7209,3210.0
24.7544,3166.0
24.7878,3048.0
24.8212,3162.0
24.8546,3089.0
24.888,3159.0
24.9215,2989.0
24.9549,2971.0
24.9883,3015.0
25.0217,3040.0
25.0552,3012.0
25.0886,2983.0
25.122,2975.0
25.1554,2995.0
25.1888,3007.0
25.2223,3025.0
25.2557,3036.0
25.2891,2973.0
25.3225,3059.0
25.356,3060.0
25.3894,2931.0
25.4228,3070.0
25.4562,3001.0
25.4897,3034.0
25.5231,3055.0
25.5565,2936.0
25.5899,3048.0
25.6233,3041.0
25.6568,3038.0
25.6902,3072.0
25.7236,2977.0
25.757,2922.0
25.7905,3115.0
25.8239,3018.0
25.8573,3018.0
25.8907,2956.0
25.9241,3025.0
25.9576,3038.0
25.991,2933.0
26.0244,3049.0
26.0578,2961.0
26.0913,3030.0
26.1247,3058.0
26.1581,3006.0
26.1915,2998.0
26.2249,2966.0
26.2584,2904.0
26.2918,2958.0
26.3252,3037.0
26.3586,3071.0
26.3921,3058.0
26.4255,2962.0
26.4589,2943.0
26.4923,2996.0
26.5258,2948.0
26.5592,3046.0
26.5926,2963.0
26.626,3028.0
26.6594,3036.0
26.6929,3117.0
26.7263,3052.0
26.7597,3136.0
26.7931,3166.0
26.8266,3202.0
26.86,3247.0
26.8934,3273.0
26.9268,3382.0
26.9602,3293.0
26.9937,3435.0
27.0271,3488.0
27.0605,3577.0
27.0939,3525.0
27.1274,3621.0
27.1608,3533.0
27.1942,3529.0
27.2276,3463.0
27.261,3502.0
27.2945,3376.0
27.3279,3307.0
27.3613,3307.0
27.3947,3072.0
27.4282,3228.0
27.4616,3032.0
27.495,3001.0
27.5284,2969.0
27.5618,2896.0
27.5953,2897.0
27.6287,2989.0
27.6621,2939.0
27.6955,2900.0
27.729,2868.0
27.7624,2781.0
27.7958,2784.0
27.8292,2829.0
27.8627,2761.0
27.8961,2844.0
27.9295,2684.0
27.9629,2784.0
27.9963,2762.0
28.0298,2739.0
28.0632,2774.0
28.0966,2782.0
28.13,2834.0
28.1635,2719.0
28.1969,2740.0
28.2303,2831.0
28.2637,2695.0
28.2971,2790.0
28.3306,2800.0
28.364,2828.0
28.3974,2832.0
28.4308,2763.0
28.4643,2813.0
28.4977,2881.0
28.5311,2895.0
28.5645,2860.0
28.5979,2901.0
28.6314,2999.0
28.6648,2891.0
28.6982,2931.0
28.7316,3079.0
28.7651,2977.0
28.7985,3119.0
28.8319,3145.0
28.8653,3183.0
28.8988,3219.0
28.9322,3182.0
28.9656,3295.0
28.999,3176.0
29.0324,3234.0
29.0659,3105.0
29.0993,3097.0
29.1327,3036.0
29.1661,2981.0
29.1996,2910.0
29.233,2845.0
29.2664,2946.0
29.2998,2844.0
29.3332,2870.0
29.3667,2674.0
29.4001,2714.0
29.4335,2657.0
29.4669,2592.0
29.5004,2658.0
29.5338,2611.0
29.5672,2615.0
29.6006,2604.0
29.634,2619.0
29.6675,2550.0
29.7009,2552.0
29.7343,2454.0
29.7677,2469.0
29.8012,2443.0
29.8346,2415.0
29.868,2397.0
29.9014,2389.0
29.9348,2573.0
29.9683,2408.0
30.0017,2494.0
30.0351,2384.0
30.0685,2377.0
30.102,2351.0
30.1354,2406.0
30.1688,2289.0
30.2022,2338.0
30.2357,2453.0
30.2691,2323.0
30.3025,2348.0
30.3359,2327.0
30.3693,2331.0
30.4028,2421.0
30.4362,2272.0
30.4696,2360.0
30.503,2358.0
30.5365,2290.0
30.5699,2297.0
30.6033,2345.0
30.6367,2343.0
30.6701,2243.0
30.7036,2300.0
30.737,2240.0
30.7704,2226.0
30.8038,2305.0
30.8373,2367.0
30.8707,2291.0
30.9041,2360.0
30.9375,2366.0
30.9709,2301.0
31.0044,2327.0
31.0378,2310.0
31.0712,2245.0
31.1046,2215.0
31.1381,2177.0
31.1715,2215.0
31.2049,2187.0
31.2383,2213.0
31.2718,2207.0
31.3052,2184.0
31.3386,2216.0
31.372,2200.0
31.4054,2286.0
31.4389,2212.0
31.4723,2218.0
31.5057,2114.0
31.5391,2181.0
31.5726,2260.0
31.606,2288.0
31.6394,2161.0
31.6728,2236.0
31.7062,2178.0
31.7397,2220.0
31.7731,2147.0
31.8065,2174.0
31.8399,2245.0
31.8734,2222.0
31.9068,2128.0
31.9402,2236.0
31.9736,2232.0
32.007,2161.0
32.0405,2143.0
32.0739,2159.0
32.1073,2118.0
32.1407,2184.0
32.1742,2211.0
32.2076,2212.0
32.241,2166.0
32.2744,2163.0
32.3078,2145.0
32.3413,2305.0
32.3747,2149.0
32.4081,2114.0
32.4415,2099.0
32.475,2236.0
32.5084,2282.0
32.5418,2180.0
32.5752,2231.0
32.6087,2195.0
32.6421,2263.0
32.6755,2217.0
32.7089,2259.0
32.7423,2234.0
32.7758,2202.0
32.8092,2283.0
32.8426,2296.0
32.876,2233.0
32.9095,2265.0
32.9429,2203.0
32.9763,2170.0
33.0097,2171.0
33.0431,2083.0
33.0766,2132.0
33.11,2226.0
33.1434,2175.0
33.1768,2254.0
33.2103,2086.0
33.2437,2221.0
33.2771,2191.0
33.3105,2226.0
33.3439,2202.0
33.3774,2212.0
33.4108,2182.0
33.4442,2142.0
33.4776,2135.0
33.5111,2193.0
33.5445,2116.0
33.5779,2219.0
33.6113,2169.0
33.6448,2190.0
33.6782,2172.0
33.7116,2085.0
33.745,2168.0
33.7784,2134.0
33.8119,2114.0
33.8453,2146.0
33.8787,2231.0
33.9121,2211.0
33.9456,2185.0
33.979,2189.0
34.0124,2029.0
34.0458,2182.0
34.0792,2110.0
34.1127,2205.0
34.1461,2117.0
34.1795,2063.0
34.2129,2060.0
34.2464,2080.0
34.2798,2079.0
34.3132,2086.0
34.3466,2084.0
34.38,2080.0
34.4135,2017.0
34.4469,1991.0
34.4803,2067.0
34.5137,2036.0
34.5472,2060.0
34.5806,2020.0
34.614,2007.0
34.6474,2006.0
34.6808,1984.0
34.7143,2086.0
34.7477,2040.0
34.7811,2047.0
34.8145,2055.0
34.848,2092.0
34.8814,2101.0
34.9148,2097.0
34.9482,2135.0
34.9817,2037.0
35.0151,2077.0
35.0485,2078.0
35.0819,2080.0
35.1153,2105.0
35.1488,2021.0
35.1822,1992.0
35.2156,1978.0
35.249,2033.0
35.2825,2097.0
35.3159,2062.0
35.3493,1984.0
35.3827,2106.0
35.4161,1972.0
35.4496,2043.0
35.483,2041.0
35.5164,2103.0
35.5498,2061.0
35.5833,2081.0
35.6167,1985.0
35.6501,2100.0
35.6835,2122.0
35.7169,2067.0
35.7504,2095.0
35.7838,2021.0
35.8172,1972.0
35.8506,2018.0
35.8841,2053.0
35.9175,2019.0
35.9509,2019.0
35.9843,2002.0
36.0178,2045.0
36.0512,2060.0
36.0846,2012.0
36.118,1966.0
36.1514,2035.0
36.1849,2014.0
36.2183,2078.0
36.2517,1974.0
36.2851,1870.0
36.3186,1978.0
36.352,1924.0
36.3854,1899.0
36.4188,1986.0
36.4522,1945.0
36.4857,1939.0
36.5191,1915.0
36.5525,1943.0
36.5859,1948.0
36.6194,1844.0
36.6528,1968.0
36.6862,2018.0
36.7196,1962.0
36.753,1936.0
36.7865,1841.0
36.8199,1892.0
36.8533,1917.0
36.8867,1960.0
36.9202,1886.0
36.9536,1930.0
36.987,1782.0
37.0204,1937.0
37.0538,1826.0
37.0873,1894.0
37.1207,1884.0
37.1541,1921.0
37.1875,1989.0
37.221,1901.0
37.2544,1905.0
37.2878,1863.0
37.3212,1905.0
37.3547,1888.0
37.3881,1945.0
37.4215,2023.0
37.4549,1935.0
37.4883,1927.0
37.5218,1981.0
37.5552,1912.0
37.5886,1919.0
37.622,1971.0
37.6555,1845.0
37.6889,1914.0
37.7223,2002.0
37.7557,1936.0
37.7891,1987.0
37.8226,1912.0
37.856,1955.0
37.8894,1945.0
37.9228,1929.0
37.9563,2021.0
37.9897,1941.0
38.0231,1985.0
38.0565,2013.0
38.0899,1980.0
38.1234,1941.0
38.1568,2029.0
38.1902,1991.0
38.2236,1991.0
38.2571,2004.0
38.2905,1994.0
38.3239,1908.0
38.3573,2056.0
38.3908,2000.0
38.4242,1968.0
38.4576,1931.0
38.491,1931.0
38.5244,1954.0
38.5579,1850.0
38.5913,1958.0
38.6247,1910.0
38.6581,1867.0
38.6916,1842.0
38.725,1836.0
38.7584,1834.0
38.7918,1890.0
38.8252,1889.0
38.8587,1855.0
38.8921,1913.0
38.9255,1863.0
38.9589,1895.0
38.9924,1831.0
39.0258,1877.0
39.0592,1835.0
39.0926,1828.0
39.126,1863.0
39.1595,1861.0
39.1929,1906.0
39.2263,1825.0
39.2597,1868.0
39.2932,1909.0
39.3266,1917.0
39.36,1875.0
39.3934,1858.0
39.4269,1931.0
39.4603,1895.0
39.4937,1897.0
39.5271,1838.0
39.5605,1917.0
39.594,1918.0
39.6274,2007.0
39.6608,1867.0
39.6942,1999.0
39.7277,1930.0
39.7611,1936.0
39.7945,1975.0
39.8279,1950.0
39.8613,1961.0
39.8948,1981.0
39.9282,1912.0
39.9616,1936.0
39.995,1909.0
40.0285,1949.0
40.0619,1849.0
40.0953,1846.0
40.1287,1845.0
40.1621,1864.0
40.1956,1898.0
40.229,1882.0
40.2624,1920.0
40.2958,1861.0
40.3293,1861.0
40.3627,1804.0
40.3961,1769.0
40.4295,1860.0
40.4629,1862.0
40.4964,1824.0
40.5298,1807.0
40.5632,1888.0
40.5966,1924.0
40.6301,1945.0
40.6635,1809.0
40.6969,1866.0
40.7303,1891.0
40.7638,1773.0
40.7972,1836.0
40.8306,1886.0
40.864,1931.0
40.8974,1859.0
40.9309,1839.0
40.9643,1950.0
40.9977,1971.0
41.0311,1961.0
41.0646,1964.0
41.098,1844.0
41.1314,1878.0
41.1648,1884.0
41.1982,1993.0
41.2317,1933.0
41.2651,1868.0
41.2985,1918.0
41.3319,1964.0
41.3654,1955.0
41.3988,1884.0
41.4322,1892.0
41.4656,1913.0
41.499,1882.0
41.5325,1920.0
41.5659,1961.0
41.5993,1870.0
41.6327,1892.0
41.6662,1878.0
41.6996,1734.0
41.733,1838.0
41.7664,1832.0
41.7999,1804.0
41.8333,1748.0
41.8667,1831.0
41.9001,1739.0
41.9335,1773.0
41.967,1811.0
42.0004,1687.0
42.0338,1813.0
42.0672,1813.0
42.1007,1710.0
42.1341,1839.0
42.1675,1760.0
42.2009,1726.0
42.2343,1771.0
42.2678,1802.0
42.3012,1813.0
42.3346,1796.0
42.368,1781.0
42.4015,1721.0
42.4349,1767.0
42.4683,1730.0
42.5017,1708.0
42.5351,1785.0
42.5686,1785.0
42.602,1830.0
42.6354,1772.0
42.6688,1791.0
42.7023,1713.0
42.7357,1765.0
42.7691,1747.0
42.8025,1728.0
42.8359,1771.0
42.8694,1742.0
42.9028,1744.0
42.9362,1704.0
42.9696,1800.0
43.0031,1740.0
43.0365,1751.0
43.0699,1654.0
43.1033,1677.0
43.1368,1715.0
43.1702,1745.0
43.2036,1709.0
43.237,1690.0
43.2704,1731.0
43.3039,1793.0
43.3373,1690.0
43.3707,1716.0
43.4041,1732.0
43.4376,1660.0
43.471,1739.0
43.5044,1689.0
43.5378,1739.0
43.5712,1735.0
43.6047,1673.0
43.6381,1725.0
43.6715,1719.0
43.7049,1697.0
43.7384,1764.0
43.7718,1705.0
43.8052,1747.0
43.8386,1714.0
43.872,1631.0
43.9055,1702.0
43.9389,1658.0
43.9723,1626.0
44.0057,1673.0
44.0392,1753.0
44.0726,1776.0
44.106,1672.0
44.1394,1684.0
44.1729,1710.0
44.2063,1647.0
44.2397,1660.0
44.2731,1686.0
44.3065,1673.0
44.34,1627.0
44.3734,1645.0
44.4068,1670.0
44.4402,1683.0
44.4737,1615.0
44.5071,1715.0
44.5405,1635.0
44.5739,1770.0
44.6073,1714.0
44.6408,1677.0
44.6742,1584.0
44.7076,1697.0
44.741,1606.0
44.7745,1626.0
44.8079,1662.0
44.8413,1666.0
44.8747,1601.0
44.9081,1749.0
44.9416,1571.0
44.975,1653.0
45.0084,1716.0
45.0418,1646.0
45.0753,1643.0
45.1087,1695.0
45.1421,1740.0
45.1755,1641.0
45.2089,1634.0
45.2424,1681.0
45.2758,1734.0
45.3092,1646.0
45.3426,1653.0
45.3761,1716.0
45.4095,1722.0
45.4429,1688.0
45.4763,1658.0
45.5098,1781.0
45.5432,1673.0
45.5766,1752.0
45.61,1686.0
45.6434,1676.0
45.6769,1693.0
45.7103,1777.0
45.7437,1647.0
45.7771,1714.0
45.8106,1721.0
45.844,1652.0
45.8774,1689.0
45.9108,1751.0
45.9442,1747.0
45.9777,1667.0
46.0111,1687.0
46.0445,1689.0
46.0779,1679.0
46.1114,1750.0
46.1448,1683.0
46.1782,1692.0
46.2116,1677.0
46.245,1732.0
46.2785,1760.0
46.3119,1755.0
46.3453,1748.0
46.3787,1783.0
46.4122,1752.0
46.4456,1703.0
46.479,1730.0
46.5124,1768.0
46.5459,1750.0
46.5793,1877.0
46.6127,1809.0
46.6461,1850.0
46.6795,1888.0
46.713,1858.0
46.7464,1876.0
46.7798,1938.0
46.8132,1879.0
46.8467,1817.0
46.8801,1895.0
46.9135,1849.0
46.9469,1809.0
46.9803,1876.0
47.0138,1922.0
47.0472,1931.0
47.0806,1907.0
47.114,1871.0
47.1475,1884.0
47.1809,1862.0
47.2143,1776.0
47.2477,1926.0
47.2811,1848.0
47.3146,1840.0
47.348,1758.0
47.3814,1784.0
47.4148,1771.0
47.4483,1733.0
47.4817,1695.0
47.5151,1749.0
47.5485,1654.0
47.5819,1710.0
47.6154,1738.0
47.6488,1683.0
47.6822,1690.0
47.7156,1702.0
47.7491,1706.0
47.7825,1628.0
47.8159,1643.0
47.8493,1632.0
47.8828,1723.0
47.9162,1549.0
47.9496,1662.0
47.983,1677.0
48.0164,1625.0
48.0499,1676.0
48.0833,1652.0
48.1167,1615.0
48.1501,1503.0
48.1836,1638.0
48.217,1735.0
48.2504,1621.0
48.2838,1655.0
48.3172,1684.0
48.3507,1662.0
48.3841,1615.0
48.4175,1657.0
48.4509,1683.0
48.4844,1713.0
48.5178,1635.0
48.5512,1699.0
48.5846,1711.0
48.618,1702.0
48.6515,1784.0
48.6849,1731.0
48.7183,1761.0
48.7517,1736.0
48.7852,1724.0
48.8186,1711.0
48.852,1798.0
48.8854,1831.0
48.9189,1796.0
48.9523,1742.0
48.9857,1729.0
49.0191,1825.0
49.0525,1844.0
49.086,1725.0
49.1194,1820.0
49.1528,1772.0
49.1862,1774.0
49.2197,1753.0
49.2531,1739.0
49.2865,1769.0
49.3199,1776.0
49.3533,1752.0
49.3868,1782.0
49.4202,1763.0
49.4536,1800.0
49.487,1812.0
49.5205,1799.0
49.5539,1801.0
49.5873,1807.0
49.6207,1787.0
49.6541,1863.0
49.6876,1866.0
49.721,1816.0
49.7544,1809.0
49.7878,1856.0
49.8213,1915.0
49.8547,1864.0
49.8881,1952.0
49.9215,1860.0
49.9549,1929.0
49.9884,2003.0
50.0218,1952.0
50.0552,1945.0
50.0886,1976.0
50.1221,1978.0
50.1555,1956.0
50.1889,2135.0
50.2223,1908.0
50.2558,2050.0
50.2892,1972.0
50.3226,2013.0
50.356,1923.0
50.3894,1996.0
50.4229,1848.0
50.4563,1882.0
50.4897,1918.0
50.5231,1864.0
50.5566,1905.0
50.59,1858.0
50.6234,1992.0
50.6568,1897.0
50.6902,1720.0
50.7237,1808.0
50.7571,1825.0
50.7905,1841.0
50.8239,1832.0
50.8574,1805.0
50.8908,1745.0
50.9242,1737.0
50.9576,1730.0
50.991,1745.0
51.0245,1702.0
51.0579,1771.0
51.0913,1690.0
51.1247,1688.0
51.1582,1774.0
51.1916,1685.0
51.225,1687.0
51.2584,1661.0
51.2919,1807.0
51.3253,1708.0
51.3587,1724.0
51.3921,1739.0
51.4255,1689.0
51.459,1669.0
51.4924,1750.0
51.5258,1738.0
51.5592,1704.0
51.5927,1757.0
51.6261,1724.0
51.6595,1754.0
51.6929,1681.0
51.7263,1706.0
51.7598,1771.0
51.7932,1631.0
51.8266,1682.0
51.86,1514.0
51.8935,1718.0
51.9269,1720.0
51.9603,1679.0
51.9937,1566.0
52.0271,1647.0
52.0606,1628.0
52.094,1626.0
52.1274,1658.0
52.1608,1640.0
52.1943,1725.0
52.2277,1640.0
52.2611,1601.0
52.2945,1619.0
52.3279,1639.0
52.3614,1567.0
52.3948,1690.0
52.4282,1594.0
52.4616,1662.0
52.4951,1546.0
52.5285,1561.0
52.5619,1635.0
52.5953,1713.0
52.6288,1610.0
52.6622,1584.0
52.6956,1644.0
52.729,1598.0
52.7624,1617.0
52.7959,1595.0
52.8293,1606.0
52.8627,1636.0
52.8961,1557.0
52.9296,1601.0
52.963,1548.0
52.9964,1592.0
53.0298,1535.0
53.0632,1709.0
53.0967,1652.0
53.1301,1663.0
53.1635,1703.0
53.1969,1629.0
53.2304,1711.0
53.2638,1670.0
53.2972,1674.0
53.3306,1711.0
53.364,1639.0
53.3975,1690.0
53.4309,1714.0
53.4643,1502.0
53.4977,1678.0
53.5312,1559.0
53.5646,1630.0
53.598,1629.0
53.6314,1683.0
53.6649,1631.0
53.6983,1569.0
53.7317,1576.0
53.7651,1589.0
53.7985,1689.0
53.832,1651.0
53.8654,1605.0
53.8988,1703.0
53.9322,1566.0
53.9657,1634.0
53.9991,1670.0
54.0325,1637.0
54.0659,1631.0
54.0993,1627.0
54.1328,1617.0
54.1662,1576.0
54.1996,1679.0
54.233,1581.0
54.2665,1583.0
54.2999,1676.0
54.3333,1621.0
54.3667,1641.0
54.4001,1667.0
54.4336,1687.0
54.467,1679.0
54.5004,1657.0
54.5338,1682.0
54.5673,1709.0
54.6007,1657.0
54.6341,1719.0
54.6675,1678.0
54.701,1736.0
54.7344,1658.0
54.7678,1746.0
54.8012,1643.0
54.8346,1752.0
54.8681,1772.0
54.9015,1784.0
54.9349,1734.0
54.9683,1764.0
55.0018,1687.0
55.0352,1815.0
55.0686,1804.0
55.102,1811.0
55.1354,1773.0
55.1689,1773.0
55.2023,1796.0
55.2357,1761.0
55.2691,1761.0
55.3026,1779.0
55.336,1766.0
55.3694,1937.0
55.4028,1688.0
55.4362,1847.0
55.4697,1863.0
55.5031,1821.0
55.5365,1830.0
55.5699,1799.0
55.6034,1793.0
55.6368,1778.0
55.6702,1890.0
55.7036,1834.0
55.737,1852.0
55.7705,1864.0
55.8039,1851.0
55.8373,1852.0
55.8707,1877.0
55.9042,1889.0
55.9376,1835.0
55.971,1878.0
56.0044,1861.0
56.0379,1962.0
56.0713,1812.0
56.1047,1879.0
56.1381,1815.0
56.1715,1839.0
56.205,1838.0
56.2384,1823.0
56.2718,1861.0
56.3052,1823.0
56.3387,1789.0
56.3721,1870.0
56.4055,1754.0
56.4389,1764.0
56.4723,1786.0
56.5058,1789.0
56.5392,1736.0
56.5726,1704.0
56.606,1740.0
56.6395,1804.0
56.6729,1627.0
56.7063,1730.0
56.7397,1734.0
56.7731,1763.0
56.8066,1640.0
56.84,1667.0
56.8734,1653.0
56.9068,1683.0
56.9403,1787.0
56.9737,1681.0
57.0071,1714.0
57.0405,1652.0
57.074,1701.0
57.1074,1652.0
57.1408,1682.0
57.1742,1647.0
57.2076,1676.0
57.2411,1605.0
57.2745,1642.0
57.3079,1700.0
57.3413,1573.0
57.3748,1605.0
57.4082,1653.0
57.4416,1625.0
57.475,1771.0
57.5084,1650.0
57.5419,1629.0
57.5753,1653.0
57.6087,1621.0
57.6421,1630.0
57.6756,1632.0
57.709,1632.0
57.7424,1655.0
57.7758,1588.0
57.8092,1581.0
57.8427,1599.0
57.8761,1590.0
57.9095,1589.0
57.9429,1599.0
57.9764,1615.0
58.0098,1632.0
58.0432,1634.0
58.0766,1654.0
58.11,1585.0
58.1435,1484.0
58.1769,1638.0
58.2103,1546.0
58.2437,1527.0
58.2772,1564.0
58.3106,1572.0
58.344,1547.0
58.3774,1467.0
58.4109,1619.0
58.4443,1645.0
58.4777,1591.0
58.5111,1516.0
58.5445,1563.0
58.578,1517.0
58.6114,1596.0
58.6448,1582.0
58.6782,1605.0
58.7117,1517.0
58.7451,1562.0
58.7785,1573.0
58.8119,1585.0
58.8453,1589.0
58.8788,1625.0
58.9122,1569.0
58.9456,1556.0
58.979,1566.0
59.0125,1583.0
59.0459,1639.0
59.0793,1558.0
59.1127,1566.0
59.1461,1520.0
59.1796,1528.0
59.213,1488.0
59.2464,1614.0
59.2798,1569.0
59.3133,1610.0
59.3467,1463.0
59.3801,1556.0
59.4135,1562.0
59.447,1546.0
59.4804,1537.0
59.5138,1579.0
59.5472,1537.0
59.5806,1605.0
59.6141,1569.0
59.6475,1591.0
59.6809,1634.0
59.7143,1521.0
59.7478,1490.0
59.7812,1558.0
59.8146,1600.0
59.848,1625.0
59.8814,1485.0
59.9149,1650.0
59.9483,1628.0
59.9817,1579.0
60.0151,1585.0
60.0486,1574.0
60.082,1678.0
60.1154,1667.0
60.1488,1599.0
60.1822,1617.0
60.2157,1662.0
60.2491,1695.0
60.2825,1668.0
60.3159,1621.0
60.3494,1641.0
60.3828,1616.0
60.4162,1612.0
60.4496,1589.0
60.483,1640.0
60.5165,1599.0
60.5499,1645.0
60.5833,1634.0
60.6167,1625.0
60.6502,1686.0
60.6836,1532.0
60.717,1670.0
60.7504,1600.0
60.7839,1678.0
60.8173,1678.0
60.8507,1717.0
60.8841,1742.0
60.9175,1681.0
60.951,1655.0
60.9844,1637.0
61.0178,1614.0
61.0512,1718.0
61.0847,1661.0
61.1181,1676.0
61.1515,1639.0
61.1849,1650.0
61.2183,1608.0
61.2518,1652.0
61.2852,1651.0
61.3186,1560.0
61.352,1713.0
61.3855,1594.0
61.4189,1589.0
61.4523,1630.0
61.4857,1620.0
61.5191,1634.0
61.5526,1616.0
61.586,1576.0
61.6194,1685.0
61.6528,1607.0
61.6863,1668.0
61.7197,1664.0
61.7531,1643.0
61.7865,1693.0
61.82,1601.0
61.8534,1599.0
61.8868,1619.0
61.9202,1684.0
61.9536,1563.0
61.9871,1636.0
62.0205,1663.0
62.0539,1587.0
62.0873,1658.0
62.1208,1675.0
62.1542,1631.0
62.1876,1626.0
62.221,1616.0
62.2544,1608.0
62.2879,1687.0
62.3213,1612.0
62.3547,1607.0
62.3881,1587.0
62.4216,1563.0
62.455,1629.0
62.4884,1596.0
62.5218,1663.0
62.5552,1597.0
62.5887,1612.0
62.6221,1612.0
62.6555,1681.0
62.6889,1537.0
62.7224,1569.0
62.7558,1676.0
62.7892,1644.0
62.8226,1675.0
62.856,1600.0
62.8895,1631.0
62.9229,1651.0
62.9563,1526.0
62.9897,1593.0
63.0232,1521.0
63.0566,1638.0
63.09,1530.0
63.1234,1580.0
63.1569,1563.0
63.1903,1574.0
63.2237,1613.0
63.2571,1581.0
63.2905,1629.0
63.324,1535.0
63.3574,1609.0
63.3908,1604.0
63.4242,1563.0
63.4577,1642.0
63.4911,1598.0
63.5245,1501.0
63.5579,1568.0
63.5913,1591.0
63.6248,1556.0
63.6582,1576.0
63.6916,1571.0
63.725,1580.0
63.7585,1536.0
63.7919,1573.0
63.8253,1558.0
63.8587,1493.0
63.8921,1517.0
63.9256,1589.0
63.959,1563.0
63.9924,1560.0
64.0258,1552.0
64.0593,1568.0
64.0927,1548.0
64.1261,1527.0
64.1595,1532.0
64.193,1558.0
64.2264,1510.0
64.2598,1552.0
64.2932,1578.0
64.3266,1635.0
64.3601,1550.0
64.3935,1525.0
64.4269,1537.0
64.4603,1587.0
64.4938,1509.0
64.5272,1543.0
64.5606,1485.0
64.594,1479.0
64.6274,1499.0
64.6609,1566.0
64.6943,1525.0
64.7277,1446.0
64.7611,1545.0
64.7946,1567.0
64.828,1554.0
64.8614,1503.0
64.8948,1524.0
64.9282,1491.0
64.9617,1424.0
64.9951,1563.0
65.0285,1535.0
65.0619,1543.0
65.0954,1520.0
65.1288,1473.0
65.1622,1526.0
65.1956,1474.0
65.229,1441.0
65.2625,1512.0
65.2959,1495.0
65.3293,1554.0
65.3627,1519.0
65.3962,1542.0
65.4296,1495.0
65.463,1536.0
65.4964,1566.0
65.5299,1512.0
65.5633,1410.0
65.5967,1486.0
65.6301,1512.0
65.6635,1520.0
65.697,1543.0
65.7304,1480.0
65.7638,1432.0
65.7972,1496.0
65.8307,1537.0
65.8641,1483.0
65.8975,1503.0
65.9309,1502.0
65.9643,1510.0
65.9978,1487.0
66.0145,1572.0