File: herald_visualization/Delia_Scripts/MnF3/240918-MnF3_1to1_KS6Lgraphite-0min_milled-20-70deg_40min.csv
2Theta,Intensity
20.0084,4352.0
20.0418,4181.0
20.0752,4238.0
20.1086,4402.0
20.142,4220.0
20.1755,4327.0
20.2089,4295.0
20.2423,4315.0
20.2757,4270.0
20.3092,4320.0
20.3426,4093.0
20.376,4079.0
20.4094,4087.0
20.4428,4112.0
20.4763,4081.0
20.5097,4171.0
20.5431,4054.0
20.5765,4029.0
20.61,4173.0
20.6434,4109.0
20.6768,4091.0
20.7102,4114.0
20.7437,3929.0
20.7771,4053.0
20.8105,4067.0
20.8439,3999.0
20.8773,3909.0
20.9108,3862.0
20.9442,3845.0
20.9776,4033.0
21.011,3777.0
21.0445,3905.0
21.0779,3805.0
21.1113,3932.0
21.1447,3775.0
21.1781,3822.0
21.2116,3900.0
21.245,3914.0
21.2784,3887.0
21.3118,3919.0
21.3453,3752.0
21.3787,3819.0
21.4121,3724.0
21.4455,3701.0
21.4789,3778.0
21.5124,3663.0
21.5458,3768.0
21.5792,3695.0
21.6126,3688.0
21.6461,3717.0
21.6795,3623.0
21.7129,3647.0
21.7463,3685.0
21.7798,3600.0
21.8132,3619.0
21.8466,3579.0
21.88,3585.0
21.9134,3531.0
21.9469,3497.0
21.9803,3608.0
22.0137,3517.0
22.0471,3478.0
22.0806,3399.0
22.114,3463.0
22.1474,3450.0
22.1808,3466.0
22.2142,3553.0
22.2477,3359.0
22.2811,3401.0
22.3145,3350.0
22.3479,3384.0
22.3814,3289.0
22.4148,3462.0
22.4482,3315.0
22.4816,3349.0
22.515,3326.0
22.5485,3292.0
22.5819,3360.0
22.6153,3190.0
22.6487,3185.0
22.6822,3196.0
22.7156,3296.0
22.749,3206.0
22.7824,3196.0
22.8158,3223.0
22.8493,3194.0
22.8827,3112.0
22.9161,3260.0
22.9495,3200.0
22.983,3205.0
23.0164,3245.0
23.0498,3276.0
23.0832,3223.0
23.1167,3121.0
23.1501,3193.0
23.1835,3235.0
23.2169,3122.0
23.2503,3282.0
23.2838,3256.0
23.3172,3255.0
23.3506,3222.0
23.384,3210.0
23.4175,3118.0
23.4509,3153.0
23.4843,3143.0
23.5177,3225.0
23.5511,3272.0
23.5846,3392.0
23.618,3391.0
23.6514,3610.0
23.6848,3715.0
23.7183,3868.0
23.7517,4308.0
23.7851,5009.0
23.8185,5759.0
23.8519,7175.0
23.8854,9759.0
23.9188,13497.0
23.9522,18027.0
23.9856,17543.0
24.0191,13119.0
24.0525,8983.0
24.0859,5772.0
24.1193,4640.0
24.1528,4105.0
24.1862,3799.0
24.2196,3816.0
24.253,3751.0
24.2864,3705.0
24.3199,3965.0
24.3533,4203.0
24.3867,4669.0
24.4201,5596.0
24.4536,6970.0
24.487,8987.0
24.5204,10323.0
24.5538,8006.0
24.5872,6359.0
24.6207,4449.0
24.6541,3616.0
24.6875,3242.0
24.7209,3296.0
24.7544,3190.0
24.7878,2996.0
24.8212,3091.0
24.8546,3062.0
24.888,2927.0
24.9215,2910.0
24.9549,2970.0
24.9883,2923.0
25.0217,2816.0
25.0552,2895.0
25.0886,2870.0
25.122,2833.0
25.1554,2867.0
25.1888,2784.0
25.2223,2891.0
25.2557,2912.0
25.2891,2836.0
25.3225,2825.0
25.356,2949.0
25.3894,3049.0
25.4228,2973.0
25.4562,2996.0
25.4897,3091.0
25.5231,3285.0
25.5565,3400.0
25.5899,3542.0
25.6233,3618.0
25.6568,3666.0
25.6902,3594.0
25.7236,3506.0
25.757,3488.0
25.7905,3153.0
25.8239,3177.0
25.8573,3086.0
25.8907,2976.0
25.9241,2867.0
25.9576,2918.0
25.991,2791.0
26.0244,2806.0
26.0578,2779.0
26.0913,2847.0
26.1247,2873.0
26.1581,2879.0
26.1915,2934.0
26.2249,2882.0
26.2584,2907.0
26.2918,2931.0
26.3252,3075.0
26.3586,3240.0
26.3921,3562.0
26.4255,3779.0
26.4589,4164.0
26.4923,4593.0
26.5258,4956.0
26.5592,4933.0
26.5926,4432.0
26.626,3847.0
26.6594,3422.0
26.6929,3209.0
26.7263,2981.0
26.7597,2865.0
26.7931,2844.0
26.8266,2801.0
26.86,2714.0
26.8934,2699.0
26.9268,2725.0
26.9602,2589.0
26.9937,2578.0
27.0271,2547.0
27.0605,2720.0
27.0939,2586.0
27.1274,2586.0
27.1608,2613.0
27.1942,2528.0
27.2276,2599.0
27.261,2689.0
27.2945,2589.0
27.3279,2545.0
27.3613,2551.0
27.3947,2561.0
27.4282,2425.0
27.4616,2514.0
27.495,2598.0
27.5284,2539.0
27.5618,2465.0
27.5953,2424.0
27.6287,2562.0
27.6621,2456.0
27.6955,2493.0
27.729,2523.0
27.7624,2452.0
27.7958,2505.0
27.8292,2472.0
27.8627,2456.0
27.8961,2508.0
27.9295,2438.0
27.9629,2506.0
27.9963,2473.0
28.0298,2521.0
28.0632,2557.0
28.0966,2438.0
28.13,2352.0
28.1635,2299.0
28.1969,2470.0
28.2303,2471.0
28.2637,2421.0
28.2971,2465.0
28.3306,2484.0
28.364,2444.0
28.3974,2402.0
28.4308,2412.0
28.4643,2373.0
28.4977,2306.0
28.5311,2406.0
28.5645,2290.0
28.5979,2300.0
28.6314,2347.0
28.6648,2384.0
28.6982,2432.0
28.7316,2377.0
28.7651,2362.0
28.7985,2332.0
28.8319,2360.0
28.8653,2257.0
28.8988,2301.0
28.9322,2283.0
28.9656,2361.0
28.999,2281.0
29.0324,2395.0
29.0659,2352.0
29.0993,2316.0
29.1327,2370.0
29.1661,2274.0
29.1996,2251.0
29.233,2313.0
29.2664,2366.0
29.2998,2235.0
29.3332,2288.0
29.3667,2310.0
29.4001,2287.0
29.4335,2280.0
29.4669,2244.0
29.5004,2225.0
29.5338,2301.0
29.5672,2141.0
29.6006,2187.0
29.634,2278.0
29.6675,2222.0
29.7009,2190.0
29.7343,2156.0
29.7677,2297.0
29.8012,2227.0
29.8346,2283.0
29.868,2319.0
29.9014,2215.0
29.9348,2243.0
29.9683,2312.0
30.0017,2280.0
30.0351,2158.0
30.0685,2211.0
30.102,2144.0
30.1354,2229.0
30.1688,2238.0
30.2022,2157.0
30.2357,2181.0
30.2691,2128.0
30.3025,2202.0
30.3359,2231.0
30.3693,2177.0
30.4028,2194.0
30.4362,2103.0
30.4696,2066.0
30.503,2140.0
30.5365,2239.0
30.5699,2158.0
30.6033,2186.0
30.6367,2085.0
30.6701,2197.0
30.7036,2247.0
30.737,2155.0
30.7704,2158.0
30.8038,2211.0
30.8373,2149.0
30.8707,2156.0
30.9041,2219.0
30.9375,2198.0
30.9709,2131.0
31.0044,2175.0
31.0378,2173.0
31.0712,2123.0
31.1046,2138.0
31.1381,2032.0
31.1715,2040.0
31.2049,2091.0
31.2383,2173.0
31.2718,2095.0
31.3052,2113.0
31.3386,2211.0
31.372,2215.0
31.4054,2280.0
31.4389,2253.0
31.4723,2177.0
31.5057,2260.0
31.5391,2248.0
31.5726,2201.0
31.606,2192.0
31.6394,2162.0
31.6728,2130.0
31.7062,2029.0
31.7397,2117.0
31.7731,2101.0
31.8065,2045.0
31.8399,2060.0
31.8734,2083.0
31.9068,2025.0
31.9402,2068.0
31.9736,2179.0
32.007,2021.0
32.0405,2109.0
32.0739,1990.0
32.1073,2106.0
32.1407,1993.0
32.1742,2142.0
32.2076,2114.0
32.241,2059.0
32.2744,2049.0
32.3078,2035.0
32.3413,2111.0
32.3747,2179.0
32.4081,2245.0
32.4415,2162.0
32.475,2362.0
32.5084,2565.0
32.5418,2947.0
32.5752,3542.0
32.6087,3564.0
32.6421,3357.0
32.6755,3075.0
32.7089,2673.0
32.7423,2421.0
32.7758,2194.0
32.8092,2181.0
32.8426,2088.0
32.876,2051.0
32.9095,2059.0
32.9429,2096.0
32.9763,2035.0
33.0097,2061.0
33.0431,1962.0
33.0766,2049.0
33.11,1971.0
33.1434,2003.0
33.1768,2100.0
33.2103,1998.0
33.2437,1987.0
33.2771,1943.0
33.3105,2016.0
33.3439,1994.0
33.3774,2015.0
33.4108,2008.0
33.4442,2037.0
33.4776,1957.0
33.5111,1936.0
33.5445,1987.0
33.5779,2045.0
33.6113,1974.0
33.6448,1999.0
33.6782,2049.0
33.7116,2009.0
33.745,2211.0
33.7784,2083.0
33.8119,2135.0
33.8453,2364.0
33.8787,2613.0
33.9121,2950.0
33.9456,3633.0
33.979,4113.0
34.0124,3639.0
34.0458,3231.0
34.0792,2923.0
34.1127,2455.0
34.1461,2232.0
34.1795,2102.0
34.2129,2054.0
34.2464,2044.0
34.2798,2002.0
34.3132,2017.0
34.3466,2014.0
34.38,1950.0
34.4135,1846.0
34.4469,1950.0
34.4803,1994.0
34.5137,1852.0
34.5472,1856.0
34.5806,1851.0
34.614,1873.0
34.6474,2004.0
34.6808,1958.0
34.7143,2028.0
34.7477,1970.0
34.7811,1928.0
34.8145,1948.0
34.848,2059.0
34.8814,1949.0
34.9148,2006.0
34.9482,2103.0
34.9817,2191.0
35.0151,2354.0
35.0485,2534.0
35.0819,2655.0
35.1153,2744.0
35.1488,2508.0
35.1822,2436.0
35.2156,2283.0
35.249,2098.0
35.2825,2015.0
35.3159,1926.0
35.3493,1946.0
35.3827,1991.0
35.4161,1893.0
35.4496,1855.0
35.483,1972.0
35.5164,1949.0
35.5498,2007.0
35.5833,2024.0
35.6167,2070.0
35.6501,1982.0
35.6835,1975.0
35.7169,1983.0
35.7504,1939.0
35.7838,1842.0
35.8172,1879.0
35.8506,1925.0
35.8841,1771.0
35.9175,1896.0
35.9509,1892.0
35.9843,1860.0
36.0178,1866.0
36.0512,1868.0
36.0846,1849.0
36.118,1922.0
36.1514,1955.0
36.1849,1922.0
36.2183,1980.0
36.2517,1975.0
36.2851,2029.0
36.3186,1966.0
36.352,1944.0
36.3854,1956.0
36.4188,1937.0
36.4522,1825.0
36.4857,1787.0
36.5191,1936.0
36.5525,1889.0
36.5859,1968.0
36.6194,1939.0
36.6528,1877.0
36.6862,1833.0
36.7196,1772.0
36.753,1819.0
36.7865,1833.0
36.8199,1842.0
36.8533,1861.0
36.8867,1841.0
36.9202,1821.0
36.9536,1760.0
36.987,1795.0
37.0204,1754.0
37.0538,1768.0
37.0873,1761.0
37.1207,1754.0
37.1541,1735.0
37.1875,1813.0
37.221,1801.0
37.2544,1829.0
37.2878,1772.0
37.3212,1795.0
37.3547,1810.0
37.3881,1786.0
37.4215,1835.0
37.4549,1791.0
37.4883,1757.0
37.5218,1804.0
37.5552,1801.0
37.5886,1730.0
37.622,1710.0
37.6555,1764.0
37.6889,1702.0
37.7223,1756.0
37.7557,1769.0
37.7891,1734.0
37.8226,1760.0
37.856,1738.0
37.8894,1687.0
37.9228,1762.0
37.9563,1768.0
37.9897,1783.0
38.0231,1812.0
38.0565,1753.0
38.0899,1762.0
38.1234,1701.0
38.1568,1746.0
38.1902,1723.0
38.2236,1752.0
38.2571,1742.0
38.2905,1710.0
38.3239,1630.0
38.3573,1709.0
38.3908,1687.0
38.4242,1757.0
38.4576,1685.0
38.491,1749.0
38.5244,1708.0
38.5579,1769.0
38.5913,1663.0
38.6247,1709.0
38.6581,1654.0
38.6916,1731.0
38.725,1774.0
38.7584,1741.0
38.7918,1735.0
38.8252,1687.0
38.8587,1802.0
38.8921,1751.0
38.9255,1711.0
38.9589,1780.0
38.9924,1691.0
39.0258,1786.0
39.0592,1734.0
39.0926,1725.0
39.126,1689.0
39.1595,1710.0
39.1929,1669.0
39.2263,1716.0
39.2597,1678.0
39.2932,1779.0
39.3266,1732.0
39.36,1723.0
39.3934,1656.0
39.4269,1728.0
39.4603,1737.0
39.4937,1773.0
39.5271,1757.0
39.5605,1804.0
39.594,1794.0
39.6274,1720.0
39.6608,1835.0
39.6942,1891.0
39.7277,1978.0
39.7611,2213.0
39.7945,2461.0
39.8279,2835.0
39.8613,3225.0
39.8948,2955.0
39.9282,2601.0
39.9616,2519.0
39.995,2298.0
40.0285,2072.0
40.0619,1884.0
40.0953,1813.0
40.1287,1861.0
40.1621,1858.0
40.1956,1844.0
40.229,1824.0
40.2624,1738.0
40.2958,1732.0
40.3293,1725.0
40.3627,1729.0
40.3961,1773.0
40.4295,1739.0
40.4629,1695.0
40.4964,1719.0
40.5298,1717.0
40.5632,1760.0
40.5966,1805.0
40.6301,1771.0
40.6635,1917.0
40.6969,1785.0
40.7303,1789.0
40.7638,1927.0
40.7972,1975.0
40.8306,2041.0
40.864,1937.0
40.8974,1933.0
40.9309,1989.0
40.9643,1989.0
40.9977,2237.0
41.0311,2310.0
41.0646,2465.0
41.098,2527.0
41.1314,2564.0
41.1648,2271.0
41.1982,2362.0
41.2317,2394.0
41.2651,2341.0
41.2985,2478.0
41.3319,2684.0
41.3654,2823.0
41.3988,2696.0
41.4322,2486.0
41.4656,2392.0
41.499,2215.0
41.5325,2097.0
41.5659,1913.0
41.5993,1911.0
41.6327,1702.0
41.6662,1709.0
41.6996,1707.0
41.733,1719.0
41.7664,1684.0
41.7999,1718.0
41.8333,1685.0
41.8667,1664.0
41.9001,1704.0
41.9335,1690.0
41.967,1637.0
42.0004,1710.0
42.0338,1715.0
42.0672,1787.0
42.1007,1878.0
42.1341,1972.0
42.1675,1906.0
42.2009,1934.0
42.2343,1852.0
42.2678,1823.0
42.3012,1828.0
42.3346,1819.0
42.368,1707.0
42.4015,1678.0
42.4349,1734.0
42.4683,1677.0
42.5017,1676.0
42.5351,1725.0
42.5686,1647.0
42.602,1601.0
42.6354,1571.0
42.6688,1664.0
42.7023,1626.0
42.7357,1626.0
42.7691,1650.0
42.8025,1584.0
42.8359,1571.0
42.8694,1630.0
42.9028,1703.0
42.9362,1581.0
42.9696,1683.0
43.0031,1657.0
43.0365,1600.0
43.0699,1601.0
43.1033,1659.0
43.1368,1579.0
43.1702,1590.0
43.2036,1623.0
43.237,1585.0
43.2704,1660.0
43.3039,1588.0
43.3373,1622.0
43.3707,1589.0
43.4041,1610.0
43.4376,1684.0
43.471,1692.0
43.5044,1670.0
43.5378,1627.0
43.5712,1700.0
43.6047,1764.0
43.6381,1744.0
43.6715,1877.0
43.7049,1865.0
43.7384,1886.0
43.7718,1772.0
43.8052,1726.0
43.8386,1731.0
43.872,1673.0
43.9055,1742.0
43.9389,1640.0
43.9723,1589.0
44.0057,1601.0
44.0392,1634.0
44.0726,1549.0
44.106,1687.0
44.1394,1636.0
44.1729,1591.0
44.2063,1543.0
44.2397,1538.0
44.2731,1561.0
44.3065,1514.0
44.34,1694.0
44.3734,1560.0
44.4068,1498.0
44.4402,1517.0
44.4737,1653.0
44.5071,1486.0
44.5405,1576.0
44.5739,1545.0
44.6073,1599.0
44.6408,1521.0
44.6742,1594.0
44.7076,1566.0
44.741,1593.0
44.7745,1551.0
44.8079,1561.0
44.8413,1515.0
44.8747,1533.0
44.9081,1518.0
44.9416,1487.0
44.975,1550.0
45.0084,1449.0
45.0418,1536.0
45.0753,1513.0
45.1087,1592.0
45.1421,1613.0
45.1755,1581.0
45.2089,1513.0
45.2424,1559.0
45.2758,1579.0
45.3092,1531.0
45.3426,1500.0
45.3761,1515.0
45.4095,1537.0
45.4429,1554.0
45.4763,1561.0
45.5098,1515.0
45.5432,1536.0
45.5766,1444.0
45.61,1537.0
45.6434,1535.0
45.6769,1566.0
45.7103,1485.0
45.7437,1572.0
45.7771,1546.0
45.8106,1516.0
45.844,1465.0
45.8774,1470.0
45.9108,1530.0
45.9442,1525.0
45.9777,1544.0
46.0111,1524.0
46.0445,1533.0
46.0779,1505.0
46.1114,1576.0
46.1448,1449.0
46.1782,1611.0
46.2116,1512.0
46.245,1516.0
46.2785,1521.0
46.3119,1567.0
46.3453,1503.0
46.3787,1510.0
46.4122,1484.0
46.4456,1461.0
46.479,1448.0
46.5124,1562.0
46.5459,1406.0
46.5793,1462.0
46.6127,1501.0
46.6461,1550.0
46.6795,1501.0
46.713,1534.0
46.7464,1568.0
46.7798,1443.0
46.8132,1397.0
46.8467,1510.0
46.8801,1454.0
46.9135,1541.0
46.9469,1493.0
46.9803,1490.0
47.0138,1584.0
47.0472,1503.0
47.0806,1514.0
47.114,1550.0
47.1475,1481.0
47.1809,1474.0
47.2143,1501.0
47.2477,1497.0
47.2811,1568.0
47.3146,1421.0
47.348,1528.0
47.3814,1487.0
47.4148,1455.0
47.4483,1453.0
47.4817,1432.0
47.5151,1502.0
47.5485,1435.0
47.5819,1498.0
47.6154,1546.0
47.6488,1501.0
47.6822,1499.0
47.7156,1533.0
47.7491,1491.0
47.7825,1527.0
47.8159,1507.0
47.8493,1430.0
47.8828,1519.0
47.9162,1491.0
47.9496,1534.0
47.983,1440.0
48.0164,1534.0
48.0499,1494.0
48.0833,1493.0
48.1167,1547.0
48.1501,1546.0
48.1836,1456.0
48.217,1511.0
48.2504,1521.0
48.2838,1510.0
48.3172,1521.0
48.3507,1603.0
48.3841,1562.0
48.4175,1566.0
48.4509,1513.0
48.4844,1537.0
48.5178,1584.0
48.5512,1572.0
48.5846,1562.0
48.618,1573.0
48.6515,1576.0
48.6849,1490.0
48.7183,1538.0
48.7517,1594.0
48.7852,1641.0
48.8186,1707.0
48.852,1758.0
48.8854,1805.0
48.9189,1950.0
48.9523,2192.0
48.9857,2584.0
49.0191,3127.0
49.0525,3560.0
49.086,3370.0
49.1194,2779.0
49.1528,2763.0
49.1862,2669.0
49.2197,2318.0
49.2531,2033.0
49.2865,1738.0
49.3199,1654.0
49.3533,1695.0
49.3868,1585.0
49.4202,1558.0
49.4536,1562.0
49.487,1462.0
49.5205,1457.0
49.5539,1489.0
49.5873,1479.0
49.6207,1497.0
49.6541,1480.0
49.6876,1498.0
49.721,1419.0
49.7544,1442.0
49.7878,1551.0
49.8213,1470.0
49.8547,1409.0
49.8881,1376.0
49.9215,1526.0
49.9549,1480.0
49.9884,1572.0
50.0218,1609.0
50.0552,1611.0
50.0886,1660.0
50.1221,1699.0
50.1555,1873.0
50.1889,2066.0
50.2223,2375.0
50.2558,2396.0
50.2892,2109.0
50.3226,1906.0
50.356,1879.0
50.3894,1984.0
50.4229,1628.0
50.4563,1596.0
50.4897,1548.0
50.5231,1485.0
50.5566,1474.0
50.59,1452.0
50.6234,1561.0
50.6568,1356.0
50.6902,1469.0
50.7237,1458.0
50.7571,1507.0
50.7905,1442.0
50.8239,1414.0
50.8574,1439.0
50.8908,1465.0
50.9242,1473.0
50.9576,1426.0
50.991,1403.0
51.0245,1498.0
51.0579,1423.0
51.0913,1437.0
51.1247,1454.0
51.1582,1406.0
51.1916,1418.0
51.225,1438.0
51.2584,1444.0
51.2919,1411.0
51.3253,1384.0
51.3587,1408.0
51.3921,1455.0
51.4255,1515.0
51.459,1465.0
51.4924,1367.0
51.5258,1415.0
51.5592,1438.0
51.5927,1418.0
51.6261,1430.0
51.6595,1380.0
51.6929,1477.0
51.7263,1417.0
51.7598,1478.0
51.7932,1404.0
51.8266,1466.0
51.86,1426.0
51.8935,1439.0
51.9269,1433.0
51.9603,1462.0
51.9937,1442.0
52.0271,1433.0
52.0606,1446.0
52.094,1431.0
52.1274,1507.0
52.1608,1479.0
52.1943,1496.0
52.2277,1598.0
52.2611,1577.0
52.2945,1527.0
52.3279,1569.0
52.3614,1589.0
52.3948,1630.0
52.4282,1614.0
52.4616,1641.0
52.4951,1721.0
52.5285,1711.0
52.5619,1652.0
52.5953,1663.0
52.6288,1700.0
52.6622,1685.0
52.6956,1593.0
52.729,1667.0
52.7624,1614.0
52.7959,1589.0
52.8293,1578.0
52.8627,1607.0
52.8961,1622.0
52.9296,1554.0
52.963,1584.0
52.9964,1550.0
53.0298,1628.0
53.0632,1661.0
53.0967,1760.0
53.1301,1971.0
53.1635,2342.0
53.1969,2723.0
53.2304,2647.0
53.2638,2279.0
53.2972,2170.0
53.3306,2197.0
53.364,2155.0
53.3975,2005.0
53.4309,1692.0
53.4643,1653.0
53.4977,1603.0
53.5312,1507.0
53.5646,1567.0
53.598,1437.0
53.6314,1435.0
53.6649,1489.0
53.6983,1417.0
53.7317,1408.0
53.7651,1444.0
53.7985,1383.0
53.832,1478.0
53.8654,1408.0
53.8988,1533.0
53.9322,1434.0
53.9657,1400.0
53.9991,1487.0
54.0325,1455.0
54.0659,1461.0
54.0993,1461.0
54.1328,1452.0
54.1662,1455.0
54.1996,1448.0
54.233,1458.0
54.2665,1494.0
54.2999,1496.0
54.3333,1535.0
54.3667,1480.0
54.4001,1491.0
54.4336,1487.0
54.467,1545.0
54.5004,1518.0
54.5338,1657.0
54.5673,1614.0
54.6007,1679.0
54.6341,1713.0
54.6675,1721.0
54.701,2015.0
54.7344,2280.0
54.7678,2622.0
54.8012,2865.0
54.8346,2685.0
54.8681,2355.0
54.9015,2251.0
54.9349,2382.0
54.9683,2192.0
55.0018,1981.0
55.0352,1726.0
55.0686,1625.0
55.102,1548.0
55.1354,1623.0
55.1689,1501.0
55.2023,1448.0
55.2357,1507.0
55.2691,1458.0
55.3026,1506.0
55.336,1577.0
55.3694,1590.0
55.4028,1520.0
55.4362,1613.0
55.4697,1659.0
55.5031,1746.0
55.5365,1937.0
55.5699,2065.0
55.6034,2376.0
55.6368,2530.0
55.6702,2193.0
55.7036,2040.0
55.737,2004.0
55.7705,2040.0
55.8039,2009.0
55.8373,1745.0
55.8707,1638.0
55.9042,1543.0
55.9376,1556.0
55.971,1549.0
56.0044,1491.0
56.0379,1478.0
56.0713,1518.0
56.1047,1537.0
56.1381,1589.0
56.1715,1596.0
56.205,1650.0
56.2384,1617.0
56.2718,1730.0
56.3052,1668.0
56.3387,1749.0
56.3721,1860.0
56.4055,1742.0
56.4389,1691.0
56.4723,1682.0
56.5058,1629.0
56.5392,1585.0
56.5726,1500.0
56.606,1475.0
56.6395,1530.0
56.6729,1475.0
56.7063,1467.0
56.7397,1470.0
56.7731,1447.0
56.8066,1461.0
56.84,1454.0
56.8734,1501.0
56.9068,1519.0
56.9403,1472.0
56.9737,1524.0
57.0071,1591.0
57.0405,1658.0
57.074,1744.0
57.1074,1874.0
57.1408,1911.0
57.1742,1996.0
57.2076,1959.0
57.2411,1876.0
57.2745,1927.0
57.3079,1976.0
57.3413,2020.0
57.3748,2083.0
57.4082,1871.0
57.4416,1722.0
57.475,1652.0
57.5084,1650.0
57.5419,1647.0
57.5753,1575.0
57.6087,1479.0
57.6421,1505.0
57.6756,1410.0
57.709,1405.0
57.7424,1430.0
57.7758,1313.0
57.8092,1417.0
57.8427,1424.0
57.8761,1451.0
57.9095,1454.0
57.9429,1462.0
57.9764,1376.0
58.0098,1387.0
58.0432,1420.0
58.0766,1438.0
58.11,1461.0
58.1435,1456.0
58.1769,1340.0
58.2103,1498.0
58.2437,1599.0
58.2772,1686.0
58.3106,1656.0
58.344,1621.0
58.3774,1588.0
58.4109,1511.0
58.4443,1619.0
58.4777,1575.0
58.5111,1494.0
58.5445,1507.0
58.578,1478.0
58.6114,1462.0
58.6448,1448.0
58.6782,1340.0
58.7117,1451.0
58.7451,1399.0
58.7785,1405.0
58.8119,1419.0
58.8453,1320.0
58.8788,1405.0
58.9122,1469.0
58.9456,1358.0
58.979,1327.0
59.0125,1409.0
59.0459,1371.0
59.0793,1392.0
59.1127,1339.0
59.1461,1361.0
59.1796,1421.0
59.213,1402.0
59.2464,1363.0
59.2798,1412.0
59.3133,1425.0
59.3467,1370.0
59.3801,1347.0
59.4135,1430.0
59.447,1400.0
59.4804,1379.0
59.5138,1412.0
59.5472,1407.0
59.5806,1421.0
59.6141,1449.0
59.6475,1467.0
59.6809,1451.0
59.7143,1563.0
59.7478,1490.0
59.7812,1442.0
59.8146,1545.0
59.848,1485.0
59.8814,1447.0
59.9149,1384.0
59.9483,1450.0
59.9817,1434.0
60.0151,1403.0
60.0486,1412.0
60.082,1380.0
60.1154,1373.0
60.1488,1387.0
60.1822,1364.0
60.2157,1379.0
60.2491,1388.0
60.2825,1469.0
60.3159,1405.0
60.3494,1357.0
60.3828,1486.0
60.4162,1468.0
60.4496,1420.0
60.483,1584.0
60.5165,1596.0
60.5499,1637.0
60.5833,1647.0
60.6167,1554.0
60.6502,1447.0
60.6836,1432.0
60.717,1609.0
60.7504,1412.0
60.7839,1312.0
60.8173,1353.0
60.8507,1311.0
60.8841,1311.0
60.9175,1408.0
60.951,1386.0
60.9844,1455.0
61.0178,1383.0
61.0512,1336.0
61.0847,1299.0
61.1181,1394.0
61.1515,1381.0
61.1849,1365.0
61.2183,1346.0
61.2518,1375.0
61.2852,1392.0
61.3186,1396.0
61.352,1337.0
61.3855,1338.0
61.4189,1269.0
61.4523,1376.0
61.4857,1326.0
61.5191,1280.0
61.5526,1359.0
61.586,1360.0
61.6194,1344.0
61.6528,1381.0
61.6863,1380.0
61.7197,1378.0
61.7531,1383.0
61.7865,1361.0
61.82,1316.0
61.8534,1345.0
61.8868,1370.0
61.9202,1371.0
61.9536,1463.0
61.9871,1409.0
62.0205,1311.0
62.0539,1349.0
62.0873,1390.0
62.1208,1449.0
62.1542,1401.0
62.1876,1385.0
62.221,1376.0
62.2544,1423.0
62.2879,1449.0
62.3213,1510.0
62.3547,1481.0
62.3881,1402.0
62.4216,1515.0
62.455,1475.0
62.4884,1520.0
62.5218,1607.0
62.5552,1591.0
62.5887,1753.0
62.6221,1800.0
62.6555,1744.0
62.6889,1717.0
62.7224,1638.0
62.7558,1717.0
62.7892,1686.0
62.8226,1735.0
62.856,1677.0
62.8895,1731.0
62.9229,1763.0
62.9563,1854.0
62.9897,1781.0
63.0232,1766.0
63.0566,1749.0
63.09,1726.0
63.1234,1738.0
63.1569,1812.0
63.1903,1628.0
63.2237,1558.0
63.2571,1574.0
63.2905,1579.0
63.324,1566.0
63.3574,1525.0
63.3908,1531.0
63.4242,1485.0
63.4577,1542.0
63.4911,1621.0
63.5245,1575.0
63.5579,1671.0
63.5913,1723.0
63.6248,1780.0
63.6582,1897.0
63.6916,1865.0
63.725,1805.0
63.7585,1720.0
63.7919,1647.0
63.8253,1662.0
63.8587,1668.0
63.8921,1574.0
63.9256,1579.0
63.959,1409.0
63.9924,1421.0
64.0258,1396.0
64.0593,1418.0
64.0927,1402.0
64.1261,1417.0
64.1595,1359.0
64.193,1344.0
64.2264,1331.0
64.2598,1324.0
64.2932,1278.0
64.3266,1372.0
64.3601,1250.0
64.3935,1341.0
64.4269,1277.0
64.4603,1327.0
64.4938,1408.0
64.5272,1379.0
64.5606,1397.0
64.594,1306.0
64.6274,1304.0
64.6609,1317.0
64.6943,1361.0
64.7277,1315.0
64.7611,1412.0
64.7946,1305.0
64.828,1406.0
64.8614,1301.0
64.8948,1343.0
64.9282,1369.0
64.9617,1313.0
64.9951,1313.0
65.0285,1333.0
65.0619,1336.0
65.0954,1352.0
65.1288,1280.0
65.1622,1284.0
65.1956,1380.0
65.229,1333.0
65.2625,1343.0
65.2959,1351.0
65.3293,1389.0
65.3627,1302.0
65.3962,1333.0
65.4296,1343.0
65.463,1354.0
65.4964,1274.0
65.5299,1359.0
65.5633,1300.0
65.5967,1299.0
65.6301,1364.0
65.6635,1344.0
65.697,1333.0
65.7304,1270.0
65.7638,1375.0
65.7972,1364.0
65.8307,1370.0
65.8641,1332.0
65.8975,1349.0
65.9309,1321.0
65.9643,1304.0
65.9978,1411.0
66.0312,1409.0
66.0646,1342.0
66.098,1437.0
66.1315,1385.0
66.1649,1507.0
66.1983,1448.0
66.2317,1423.0
66.2651,1441.0
66.2986,1351.0
66.332,1363.0
66.3654,1314.0
66.3988,1306.0
66.4323,1315.0
66.4657,1326.0
66.4991,1316.0
66.5325,1316.0
66.566,1340.0
66.5994,1354.0
66.6328,1321.0
66.6662,1311.0
66.6996,1328.0
66.7331,1376.0
66.7665,1330.0
66.7999,1296.0
66.8333,1326.0
66.8668,1305.0
66.9002,1341.0
66.9336,1249.0
66.967,1340.0
67.0004,1384.0
67.0339,1293.0
67.0673,1292.0
67.1007,1293.0
67.1341,1365.0
67.1676,1311.0
67.201,1320.0
67.2344,1314.0
67.2678,1372.0
67.3012,1395.0
67.3347,1333.0
67.3681,1273.0
67.4015,1255.0
67.4349,1438.0
67.4684,1331.0
67.5018,1343.0
67.5352,1354.0
67.5686,1295.0
67.602,1341.0
67.6355,1347.0
67.6689,1321.0
67.7023,1364.0
67.7357,1283.0
67.7692,1364.0
67.8026,1302.0
67.836,1282.0
67.8694,1275.0
67.9029,1316.0
67.9363,1352.0
67.9697,1270.0
68.0031,1353.0
68.0365,1347.0
68.07,1378.0
68.1034,1314.0
68.1368,1352.0
68.1702,1262.0
68.2037,1355.0
68.2371,1503.0
68.2705,1438.0
68.3039,1427.0
68.3373,1394.0
68.3708,1339.0
68.4042,1275.0
68.4376,1425.0
68.471,1444.0
68.5045,1505.0
68.5379,1405.0
68.5713,1374.0
68.6047,1331.0
68.6381,1341.0
68.6716,1332.0
68.705,1389.0
68.7384,1255.0
68.7718,1300.0
68.8053,1331.0
68.8387,1287.0
68.8721,1295.0
68.9055,1312.0
68.939,1311.0
68.9724,1227.0
69.0058,1355.0
69.0392,1312.0
69.0726,1252.0
69.1061,1344.0
69.1395,1270.0
69.1729,1243.0
69.2063,1315.0
69.2398,1355.0
69.2732,1262.0
69.3066,1283.0
69.34,1358.0
69.3734,1317.0
69.4069,1287.0
69.4403,1342.0
69.4737,1326.0
69.5071,1302.0
69.5406,1306.0
69.574,1281.0
69.6074,1321.0
69.6408,1299.0
69.6742,1307.0
69.7077,1212.0
69.7411,1296.0
69.7745,1265.0
69.8079,1230.0
69.8414,1264.0
69.8748,1315.0
69.9082,1266.0
69.9416,1346.0
69.975,1248.0
69.9918,1332.0