File: herald_visualization/Delia_Scripts/MnF3/fitted-MnF3_1to1_KS6Lgraphite-0min_milled-20-70deg_40min.csv
2Theta,Intensity
20.0254,4341.18
20.0594,4375.48
20.0934,4279.58
20.1274,4227.91
20.1614,4262.82
20.1954,4310.39
20.2294,4311.9
20.2634,4259.63
20.2974,4233.13
20.3314,4164.2
20.3654,4169.48
20.3994,4074.35
20.4334,4118.82
20.4674,4123.15
20.5014,4169
20.5354,4105.55
20.5694,4088.75
20.6034,4106.99
20.6374,4106.84
20.6714,4115.46
20.7054,4089.5
20.7394,3936.2
20.7734,4044.32
20.8074,4058.54
20.8414,4006.82
20.8754,3914.11
20.9094,3866.38
20.9434,3848.58
20.9774,4030.1
21.0114,3776.42
21.0454,3902.41
21.0794,3799.96
21.1134,3931.88
21.1474,3782.09
21.1814,3809.13
21.2154,3874.38
21.2494,3846.85
21.2834,3874.58
21.3174,3847.97
21.3514,3721.71
21.3854,3752.69
21.4194,3728.77
21.4534,3770.35
21.4874,3708.56
21.5214,3692.57
21.5554,3766.86
21.5894,3755.68
21.6234,3696.98
21.6574,3727.81
21.6914,3561.9
21.7254,3648.49
21.7594,3624.19
21.7934,3605.7
21.8274,3637.67
21.8614,3563.1
21.8954,3574.9
21.9294,3560.52
21.9634,3581.88
21.9974,3501.34
22.0314,3519.53
22.0654,3490.85
22.0994,3483.12
22.1334,3519.74
22.1674,3493.4
22.2014,3445.03
22.2354,3400.99
22.2694,3421.36
22.3034,3405.4
22.3374,3394.76
22.3714,3308.75
22.4054,3392.65
22.4394,3322.41
22.4734,3312.39
22.5074,3339.81
22.5414,3345.63
22.5754,3333.41
22.6094,3233.14
22.6434,3261.31
22.6774,3204.05
22.7114,3287.15
22.7454,3237.87
22.7794,3213.64
22.8134,3250.75
22.8474,3207.53
22.8814,3125.85
22.9154,3258.95
22.9494,3201.18
22.9834,3204.62
23.0174,3246.69
23.0514,3284.9
23.0854,3220.33
23.1194,3136.21
23.1534,3204.98
23.1874,3219.07
23.2214,3144.83
23.2554,3290.7
23.2894,3286.11
23.3234,3225.47
23.3574,3222.4
23.3914,3176.69
23.4254,3175.68
23.4594,3177.35
23.4934,3197.19
23.5274,3193.29
23.5614,3261
23.5954,3358.43
23.6294,3397.12
23.6634,3670.03
23.6974,3776.44
23.7314,4132.14
23.7654,4538.78
23.7994,5139.5
23.8334,6359.81
23.8674,8284.19
23.9014,11121.2
23.9354,15927.3
23.9694,18508.5
24.0034,14639.5
24.0374,10921
24.0714,6874.24
24.1054,4922.6
24.1394,4275.73
24.1734,3938.59
24.2074,3870.93
24.2414,3727.97
24.2754,3714.29
24.3094,3926.65
24.3434,4147.14
24.3774,4547
24.4114,5344.48
24.4454,6601.11
24.4794,8533.3
24.5134,10188.1
24.5474,8527.89
24.5814,6683.49
24.6154,4773.44
24.6494,3724.47
24.6834,3313.86
24.7174,3283.37
24.7514,3176.71
24.7854,3004.84
24.8194,3070.24
24.8534,3055.1
24.8874,2926.5
24.9214,2909.38
24.9554,2968.33
24.9894,2921.38
25.0234,2824.04
25.0574,2900.78
25.0914,2859.54
25.1254,2818.16
25.1594,2844.66
25.1934,2796.94
25.2274,2894.95
25.2614,2875.75
25.2954,2834.88
25.3294,2822.96
25.3634,2887.06
25.3974,3058.06
25.4314,2990.9
25.4654,3077.37
25.4994,3161.84
25.5334,3342.83
25.5674,3504.62
25.6014,3568
25.6354,3715.05
25.6694,3644.15
25.7034,3627.88
25.7374,3507.65
25.7714,3327.72
25.8054,3211.85
25.8394,3133.47
25.8734,2952.45
25.9074,2907.32
25.9414,2907.33
25.9754,2847.13
26.0094,2894.3
26.0434,2808.46
26.0774,2777.12
26.1114,2828.35
26.1454,2833.23
26.1794,2878.66
26.2134,2883.39
26.2474,2920.84
26.2814,2955.36
26.3154,3089.16
26.3494,3211.67
26.3834,3459.38
26.4174,3632.61
26.4514,4029.37
26.4854,4493.7
26.5194,4884.82
26.5534,4961.55
26.5874,4544.25
26.6214,3926.8
26.6554,3473.33
26.6894,3204.17
26.7234,2999.76
26.7574,2868.1
26.7914,2844.74
26.8254,2805.3
26.8594,2715.93
26.8934,2699.04
26.9274,2724.71
26.9614,2595.59
26.9954,2592.26
27.0294,2557.04
27.0634,2718.81
27.0974,2587.23
27.1314,2588.39
27.1654,2631.35
27.1994,2547.12
27.2334,2568.47
27.2674,2639.16
27.3014,2591.47
27.3354,2529.81
27.3694,2538.97
27.4034,2503.23
27.4374,2475.63
27.4714,2518.68
27.5054,2611.63
27.5394,2508.92
27.5734,2502.87
27.6074,2442.08
27.6414,2497.6
27.6754,2519.38
27.7094,2464.06
27.7434,2489.41
27.7774,2434.98
27.8114,2513.37
27.8454,2530.86
27.8794,2348.05
27.9134,2546.18
27.9474,2460.36
27.9814,2482.86
28.0154,2480.47
28.0494,2581.83
28.0834,2474.48
28.1174,2432.41
28.1514,2393.12
28.1854,2414.84
28.2194,2430.4
28.2534,2411.69
28.2874,2425.17
28.3214,2370.44
28.3554,2405.25
28.3894,2430.93
28.4234,2427.22
28.4574,2393.65
28.4914,2360.12
28.5254,2393.28
28.5594,2300.21
28.5934,2311.27
28.6274,2343.16
28.6614,2356.03
28.6954,2411.46
28.7294,2366.35
28.7634,2365.98
28.7974,2330.99
28.8314,2361.88
28.8654,2257.23
28.8994,2303.14
28.9334,2287.81
28.9674,2370.27
29.0014,2291.77
29.0354,2381.57
29.0694,2331.52
29.1034,2323.55
29.1374,2367.22
29.1714,2274.63
29.2054,2268.71
29.2394,2327.12
29.2734,2291.9
29.3074,2319.76
29.3414,2270.53
29.3754,2291.8
29.4094,2306.96
29.4434,2254.08
29.4774,2262.71
29.5114,2284.24
29.5454,2298.23
29.5794,2210.09
29.6134,2187.76
29.6474,2278.8
29.6814,2295.13
29.7154,2261.84
29.7494,2232.51
29.7834,2155.87
29.8174,2338.46
29.8514,2213.4
29.8854,2212.11
29.9194,2159.56
29.9534,2259.34
29.9874,2190.76
30.0214,2185.17
30.0554,2188.12
30.0894,2193.79
30.1234,2236.92
30.1574,2229.78
30.1914,2149.19
30.2254,2184.7
30.2594,2143.12
30.2934,2176.29
30.3274,2144.39
30.3614,2197.55
30.3954,2197.55
30.4294,2183.54
30.4634,2070.87
30.4974,2140.34
30.5314,2210.93
30.5654,2164.22
30.5994,2202.76
30.6334,2102.53
30.6674,2186.15
30.7014,2232.57
30.7354,2160.58
30.7694,2158.06
30.8034,2210.08
30.8374,2148.91
30.8714,2156.32
30.9054,2216.83
30.9394,2195.04
30.9734,2123.51
31.0074,2175
31.0414,2172.79
31.0754,2126.47
31.1094,2099.89
31.1434,2082.38
31.1774,2062.84
31.2114,2119.17
31.2454,2174.26
31.2794,2109.11
31.3134,2131.12
31.3474,2213.1
31.3814,2209.97
31.4154,2274.66
31.4494,2289.41
31.4834,2277.02
31.5174,2230.73
31.5514,2189.48
31.5854,2168.06
31.6194,2085.52
31.6534,2094.35
31.6874,2177.84
31.7214,2077.83
31.7554,2080.39
31.7894,2071.8
31.8234,2098.69
31.8574,2122.26
31.8914,2083.15
31.9254,2082.21
31.9594,2119.23
31.9934,1992.33
32.0274,2153.73
32.0614,2038.76
32.0954,2060.92
32.1294,2016.84
32.1634,2083.82
32.1974,2049.75
32.2314,2094.8
32.2654,2038.14
32.2994,2005.52
32.3334,2086.84
32.3674,2118.39
32.4014,2201.3
32.4354,2166.81
32.4694,2365.02
32.5034,2531.59
32.5374,2877.74
32.5714,3476.39
32.6054,3584.32
32.6394,3366.6
32.6734,3080.64
32.7074,2702.21
32.7414,2425.55
32.7754,2197.16
32.8094,2180.36
32.8434,2087.42
32.8774,2057.41
32.9114,2045.58
32.9454,2096.3
32.9794,2045.06
33.0134,2049.04
33.0474,1958.47
33.0814,2053.3
33.1154,1969.07
33.1494,2004.78
33.1834,2038.75
33.2174,1981.01
33.2514,1991.13
33.2854,1982.01
33.3194,1972.67
33.3534,1983.87
33.3874,1967.2
33.4214,2001.68
33.4554,2032.33
33.4894,2034.13
33.5234,1963.22
33.5574,1983.92
33.5914,2020.05
33.6254,2048.7
33.6594,1958.8
33.6934,2032.65
33.7274,2060.87
33.7614,2036.01
33.7954,2121.17
33.8294,2307.76
33.8634,2431.09
33.8974,2833.29
33.9314,3342.43
33.9654,3963.84
33.9994,3654.61
34.0334,3235.48
34.0674,3015.48
34.1014,2560.59
34.1354,2277.6
34.1694,2185.87
34.2034,2094.12
34.2374,2092.48
34.2714,2015.11
34.3054,1971.93
34.3394,2053.58
34.3734,1946
34.4074,1907.83
34.4414,1956.96
34.4754,1993.7
34.5094,1890.28
34.5434,1866.24
34.5774,1863.36
34.6114,1882.51
34.6454,1999.54
34.6794,1954.07
34.7134,2023.12
34.7474,1969.88
34.7814,1926.76
34.8154,1945.95
34.8494,2052
34.8834,1963.98
34.9174,2020.79
34.9514,2105.24
34.9854,2199.86
35.0194,2350.67
35.0534,2531.38
35.0874,2686.55
35.1214,2706.94
35.1554,2474.48
35.1894,2374.24
35.2234,2213.94
35.2574,2115.43
35.2914,1991.03
35.3254,1904.45
35.3594,1968.86
35.3934,1982.73
35.4274,1935.93
35.4614,1924.83
35.4954,1958.68
35.5294,1974.56
35.5634,1960.89
35.5974,2040.03
35.6314,2117.42
35.6654,1982.91
35.6994,1990.16
35.7334,1958.45
35.7674,1862.66
35.8014,1902.73
35.8354,1839.95
35.8694,1834.36
35.9034,1906.99
35.9374,1877.4
35.9714,1908.91
36.0054,1932.76
36.0394,1858.1
36.0734,1886.67
36.1074,1922
36.1414,1996.04
36.1754,1921.43
36.2094,1961.83
36.2434,1974.5
36.2774,2037.38
36.3114,1944.89
36.3454,1958.26
36.3794,1935.02
36.4134,1934.38
36.4474,1831.44
36.4814,1819.76
36.5154,1915.44
36.5494,1886.17
36.5834,1967.38
36.6174,1935.89
36.6514,1873.93
36.6854,1834.77
36.7194,1773.59
36.7534,1818.89
36.7874,1836.18
36.8214,1834.47
36.8554,1853.43
36.8894,1835.05
36.9234,1800.92
36.9574,1763.16
36.9914,1794.74
37.0254,1771.69
37.0594,1769.65
37.0934,1761.73
37.1274,1783.1
37.1614,1769.22
37.1954,1766.7
37.2294,1782.92
37.2634,1810.75
37.2974,1744.58
37.3314,1806.51
37.3654,1779.9
37.3994,1747.52
37.4334,1815.84
37.4674,1776.86
37.5014,1756.22
37.5354,1769.03
37.5694,1776.41
37.6034,1785.59
37.6374,1761.35
37.6714,1755.44
37.7054,1779.89
37.7394,1784.67
37.7734,1734
37.8074,1849.21
37.8414,1734.5
37.8754,1722.33
37.9094,1725.7
37.9434,1781.9
37.9774,1731.37
38.0114,1759.28
38.0454,1718.24
38.0794,1744.89
38.1134,1708.19
38.1474,1727.93
38.1814,1738.38
38.2154,1752
38.2494,1743.84
38.2834,1702.75
38.3174,1673.12
38.3514,1725.8
38.3854,1691.2
38.4194,1733.93
38.4534,1683.98
38.4874,1745.93
38.5214,1712.99
38.5554,1753.69
38.5894,1673.4
38.6234,1709.81
38.6574,1657.99
38.6914,1730.86
38.7254,1772.84
38.7594,1741
38.7934,1734.36
38.8274,1681.57
38.8614,1798.94
38.8954,1738.3
38.9294,1723.42
38.9634,1770.74
38.9974,1705.06
39.0314,1769.32
39.0654,1730.32
39.0994,1729.83
39.1334,1676.32
39.1674,1716.61
39.2014,1685.21
39.2354,1741.43
39.2694,1732.1
39.3034,1733.24
39.3374,1758.43
39.3714,1699.23
39.4054,1713.1
39.4394,1713.78
39.4734,1718.99
39.5074,1701.07
39.5414,1677.76
39.5754,1796.91
39.6094,1864.92
39.6434,1823.21
39.6774,1824.11
39.7114,2016.03
39.7454,2139.63
39.7794,2443.78
39.8134,2734.77
39.8474,3146.32
39.8814,3113.89
39.9154,2679.33
39.9494,2550.53
39.9834,2493.66
40.0174,2147.06
40.0514,1963.97
40.0854,1861.21
40.1194,1867.17
40.1534,1854.84
40.1874,1821.88
40.2214,1791.1
40.2554,1775.59
40.2894,1730.45
40.3234,1735.6
40.3574,1732.19
40.3914,1775.27
40.4254,1735.26
40.4594,1673.07
40.4934,1714.49
40.5274,1718.02
40.5614,1754.99
40.5954,1803.54
40.6294,1769.48
40.6634,1915.99
40.6974,1785.48
40.7314,1795.76
40.7654,1922.2
40.7994,1968.73
40.8334,2014.92
40.8674,1939.99
40.9014,1962.51
40.9354,1980.67
40.9694,2043.29
41.0034,2224.5
41.0374,2318.94
41.0714,2532.15
41.1054,2560.11
41.1394,2487.83
41.1734,2326.66
41.2074,2340.74
41.2414,2384.14
41.2754,2369.87
41.3094,2564.3
41.3434,2745.51
41.3774,2793.56
41.4114,2617.74
41.4454,2432.48
41.4794,2346.81
41.5134,2144.79
41.5474,1979.42
41.5814,1900.05
41.6154,1774.7
41.6494,1732.83
41.6834,1761.38
41.7174,1740.54
41.7514,1648.83
41.7854,1678.1
41.8194,1701.66
41.8534,1727.86
41.8874,1650.54
41.9214,1684.17
41.9554,1652.98
41.9894,1670.4
42.0234,1710
42.0574,1769.86
42.0914,1817.91
42.1254,1882.25
42.1594,1894.79
42.1934,1935.81
42.2274,1861.62
42.2614,1833.74
42.2954,1828.7
42.3294,1792.58
42.3634,1719.6
42.3974,1685.61
42.4314,1726.62
42.4654,1676.82
42.4994,1665.8
42.5334,1726.39
42.5674,1646.64
42.6014,1603.02
42.6354,1571.08
42.6694,1665.24
42.7034,1619.7
42.7374,1627.7
42.7714,1644.48
42.8054,1582.14
42.8394,1586.49
42.8734,1634.77
42.9074,1681.98
42.9414,1565.01
42.9754,1686.08
43.0094,1648.34
43.0434,1612.75
43.0774,1599.66
43.1114,1604.25
43.1454,1621.22
43.1794,1550.99
43.2134,1600.23
43.2474,1602.94
43.2814,1608.41
43.3154,1628.57
43.3494,1598.17
43.3834,1582.19
43.4174,1613.17
43.4514,1637.75
43.4854,1663.61
43.5194,1660.16
43.5534,1639.08
43.5874,1726.99
43.6214,1679.12
43.6554,1728.11
43.6894,1738.21
43.7234,1861.76
43.7574,1842.78
43.7914,1813
43.8254,1735.76
43.8594,1793
43.8934,1731.85
43.9274,1640.69
43.9614,1629.01
43.9954,1545.71
44.0294,1623.44
44.0634,1600.9
44.0974,1681.31
44.1314,1597.36
44.1654,1576.2
44.1994,1545.48
44.2334,1545.21
44.2674,1556.17
44.3014,1542.86
44.3354,1663.67
44.3694,1567.23
44.4034,1507.5
44.4374,1533.52
44.4714,1645.3
44.5054,1498.04
44.5394,1574.77
44.5734,1545.81
44.6074,1599
44.6414,1523.65
44.6754,1592.11
44.7094,1570.18
44.7434,1590.22
44.7774,1555.16
44.8114,1563.5
44.8454,1520.58
44.8794,1541.87
44.9134,1548.55
44.9474,1528.55
44.9814,1572.47
45.0154,1499.68
45.0494,1522.5
45.0834,1553.21
45.1174,1589.92
45.1514,1583.66
45.1854,1581
45.2194,1535.42
45.2534,1559
45.2874,1511.89
45.3214,1552.07
45.3554,1573.05
45.3894,1515
45.4234,1575.18
45.4574,1512.5
45.4914,1492.66
45.5254,1464.58
45.5594,1553.43
45.5934,1534.01
45.6274,1507.08
45.6614,1481.55
45.6954,1503.76
45.7294,1582.31
45.7634,1552.6
45.7974,1507.31
45.8314,1537.51
45.8654,1498.11
45.8994,1539.61
45.9334,1517.83
45.9674,1585.96
46.0014,1517.01
46.0354,1483.68
46.0694,1531.7
46.1034,1557.32
46.1374,1487.21
46.1714,1588.46
46.2054,1499.62
46.2394,1514.98
46.2734,1527.12
46.3074,1555.32
46.3414,1504.66
46.3754,1524.98
46.4094,1493.06
46.4434,1470.06
46.4774,1449.97
46.5114,1556.22
46.5454,1407.93
46.5794,1462.4
46.6134,1501.12
46.6474,1546.3
46.6814,1504.04
46.7154,1534.86
46.7494,1541.34
46.7834,1453.83
46.8174,1424.89
46.8514,1503.25
46.8854,1473.59
46.9194,1533.29
46.9534,1489.53
46.9874,1480.35
47.0214,1536.31
47.0554,1514.24
47.0894,1499.35
47.1234,1531.59
47.1574,1497.59
47.1914,1480.9
47.2254,1494.39
47.2594,1480.3
47.2934,1459.14
47.3274,1495.22
47.3614,1552.79
47.3954,1505.35
47.4294,1519.29
47.4634,1450.29
47.4974,1539.86
47.5314,1517.56
47.5654,1511.9
47.5994,1527.79
47.6334,1476.98
47.6674,1527.46
47.7014,1506.5
47.7354,1507.4
47.7694,1512.86
47.8034,1469.45
47.8374,1472.28
47.8714,1463.76
47.9054,1473.52
47.9394,1493.55
47.9734,1488.58
48.0074,1523.12
48.0414,1495.53
48.0754,1485.88
48.1094,1514.43
48.1434,1498.15
48.1774,1463.79
48.2114,1504.27
48.2454,1514.96
48.2794,1527.38
48.3134,1501.22
48.3474,1592.89
48.3814,1551.36
48.4154,1553.22
48.4494,1513.66
48.4834,1532.26
48.5174,1582.58
48.5514,1571.08
48.5854,1557.24
48.6194,1567.52
48.6534,1569.8
48.6874,1509.89
48.7214,1552.01
48.7554,1606.34
48.7894,1668.11
48.8234,1715.85
48.8574,1752.56
48.8914,1864.23
48.9254,2014.22
48.9594,2270.83
48.9934,2685.3
49.0274,3174.32
49.0614,3571.6
49.0954,3130.58
49.1294,2697.27
49.1634,2742.8
49.1974,2644.37
49.2314,2226.97
49.2654,1940.42
49.2994,1763.39
49.3334,1645.96
49.3674,1578.45
49.4014,1548.33
49.4354,1547.11
49.4694,1527.14
49.5034,1520.6
49.5374,1552.28
49.5714,1553.43
49.6054,1467.57
49.6394,1464.95
49.6734,1488.64
49.7074,1474.49
49.7414,1462.32
49.7754,1523.37
49.8094,1431.53
49.8434,1430.69
49.8774,1433.89
49.9114,1527.83
49.9454,1476.56
49.9794,1554.73
50.0134,1609
50.0474,1601.59
50.0814,1625.57
50.1154,1699.8
50.1494,1885.1
50.1834,2022.15
50.2174,2348.21
50.2514,2403.37
50.2854,2147.17
50.3194,1923.85
50.3534,1896.22
50.3874,1975.01
50.4214,1645.7
50.4554,1601.13
50.4894,1547.72
50.5234,1485
50.5574,1473.71
50.5914,1452.08
50.6254,1551.87
50.6594,1368.58
50.6934,1444.62
50.7274,1453.81
50.7614,1503.94
50.7954,1457.07
50.8294,1431.51
50.8634,1404.55
50.8974,1459.89
50.9314,1455.45
50.9654,1432.94
50.9994,1393.55
51.0334,1475.14
51.0674,1463.2
51.1014,1427.39
51.1354,1430.49
51.1694,1434.14
51.2034,1408.14
51.2374,1399.57
51.2714,1413.06
51.3054,1454.64
51.3394,1375.57
51.3734,1350.1
51.4074,1490.56
51.4414,1444.97
51.4754,1455.19
51.5094,1450.44
51.5434,1422.8
51.5774,1436.31
51.6114,1473.16
51.6454,1409.62
51.6794,1515.97
51.7134,1455.08
51.7474,1402.99
51.7814,1428.08
51.8154,1435.02
51.8494,1445.81
51.8834,1477.69
51.9174,1426.16
51.9514,1423.46
51.9854,1430.98
52.0194,1413.88
52.0534,1487.87
52.0874,1475.48
52.1214,1472.19
52.1554,1493.1
52.1894,1503.04
52.2234,1588.68
52.2574,1561.07
52.2914,1531.74
52.3254,1562.17
52.3594,1589.12
52.3934,1630.17
52.4274,1614.72
52.4614,1641.99
52.4954,1719.97
52.5294,1707.98
52.5634,1657.89
52.5974,1668.09
52.6314,1692.68
52.6654,1682.91
52.6994,1591.65
52.7334,1641.32
52.7674,1616.94
52.8014,1596.88
52.8354,1604.87
52.8694,1599.44
52.9034,1601.25
52.9374,1570.8
52.9714,1588.01
53.0054,1566.61
53.0394,1651.39
53.0734,1670.68
53.1074,1827.15
53.1414,2097.05
53.1754,2464.6
53.2094,2759.42
53.2434,2533.45
53.2774,2245.7
53.3114,2163.23
53.3454,2189.95
53.3794,2055.16
53.4134,1802.54
53.4474,1701.85
53.4814,1598.1
53.5154,1551.45
53.5494,1477.7
53.5834,1521.16
53.6174,1502.37
53.6514,1486.58
53.6854,1371.39
53.7194,1489.97
53.7534,1439.07
53.7874,1423.16
53.8214,1460.23
53.8554,1408
53.8894,1463.42
53.9234,1413.82
53.9574,1401.99
53.9914,1462.97
54.0254,1438.33
54.0594,1434.28
54.0934,1467.45
54.1274,1446.17
54.1614,1451.53
54.1954,1448.25
54.2294,1462.18
54.2634,1475.81
54.2974,1488.15
54.3314,1523.12
54.3654,1478.03
54.3994,1492.71
54.4334,1486.51
54.4674,1545.57
54.5014,1518.06
54.5354,1650.28
54.5694,1617.89
54.6034,1685.24
54.6374,1726.62
54.6714,1775.29
54.7054,2015.26
54.7394,2319.96
54.7734,2666.92
54.8074,2859.86
54.8414,2574.09
54.8754,2343.22
54.9094,2290.56
54.9434,2326.39
54.9774,2187.68
55.0114,1912.04
55.0454,1685.79
55.0794,1573.5
55.1134,1529.69
55.1474,1534.61
55.1814,1548.83
55.2154,1449.56
55.2494,1480.87
55.2834,1525.23
55.3174,1501.57
55.3514,1489.58
55.3854,1533.67
55.4194,1575.4
55.4534,1597.5
55.4874,1674.44
55.5214,1837.23
55.5554,1975.13
55.5894,2254.5
55.6234,2515.54
55.6574,2384.44
55.6914,2074.51
55.7254,2050.88
55.7594,2089.89
55.7934,2058.19
55.8274,1811.16
55.8614,1687.41
55.8954,1569.35
55.9294,1575.7
55.9634,1526.11
55.9974,1491
56.0314,1509.49
56.0654,1511.27
56.0994,1529.33
56.1334,1585.58
56.1674,1563.69
56.2014,1642.87
56.2354,1626.25
56.2694,1729.27
56.3034,1669.57
56.3374,1743.56
56.3714,1858.53
56.4054,1742.21
56.4394,1691
56.4734,1680.43
56.5074,1629.19
56.5414,1582.15
56.5754,1509.69
56.6094,1486.53
56.6434,1515.77
56.6774,1465.63
56.7114,1459.14
56.7454,1473.37
56.7794,1447
56.8134,1458.97
56.8474,1472.07
56.8814,1506.7
56.9154,1540.92
56.9494,1498.13
56.9834,1565.68
57.0174,1625.35
57.0514,1671.61
57.0854,1754.92
57.1194,1889.06
57.1534,1928.29
57.1874,2040.03
57.2214,1950.79
57.2554,1917.05
57.2894,1993.74
57.3234,2019.45
57.3574,2031.51
57.3914,1933.98
57.4254,1852.24
57.4594,1659.5
57.4934,1588.61
57.5274,1657.42
57.5614,1573.33
57.5954,1532.54
57.6294,1493.53
57.6634,1443.58
57.6974,1425.17
57.7314,1413.48
57.7654,1370
57.7994,1370.24
57.8334,1448.52
57.8674,1443.68
57.9014,1419.34
57.9354,1431.15
57.9694,1382.71
58.0034,1404.3
58.0374,1419.3
58.0714,1435.79
58.1054,1445.27
58.1394,1450.83
58.1734,1348.26
58.2074,1501.37
58.2414,1587.02
58.2754,1689.78
58.3094,1658.87
58.3434,1624.08
58.3774,1587.73
58.4114,1511.33
58.4454,1615.05
58.4794,1564.88
58.5134,1491.06
58.5474,1500.1
58.5814,1457.91
58.6154,1437.78
58.6494,1444.19
58.6834,1355.02
58.7174,1439.74
58.7514,1383.97
58.7854,1379.97
58.8194,1406.1
58.8534,1344.93
58.8874,1382.9
58.9214,1410.31
58.9554,1392.4
58.9894,1324.53
59.0234,1379
59.0574,1388.17
59.0914,1393.44
59.1254,1391.91
59.1594,1411.58
59.1934,1364.08
59.2274,1454.43
59.2614,1387.14
59.2954,1358.14
59.3294,1409.59
59.3634,1396.94
59.3974,1426.13
59.4314,1389.73
59.4654,1379.9
59.4994,1383.49
59.5334,1388.75
59.5674,1437.69
59.6014,1495.39
59.6354,1432.16
59.6694,1474.5
59.7034,1526.22
59.7374,1473.82
59.7714,1435.54
59.8054,1564.91
59.8394,1525.45
59.8734,1450.39
59.9074,1411.86
59.9414,1470.74
59.9754,1425.63
60.0094,1399.54
60.0434,1413.56
60.0774,1390.24
60.1114,1380.99
60.1454,1393.43
60.1794,1376.63
60.2134,1371.66
60.2474,1386.34
60.2814,1465.95
60.3154,1404.55
60.3494,1357
60.3834,1486.03
60.4174,1461.38
60.4514,1435.11
60.4854,1581.79
60.5194,1609.63
60.5534,1629.54
60.5874,1628.15
60.6214,1537.15
60.6554,1460.36
60.6894,1443.74
60.7234,1569.11
60.7574,1426.09
60.7914,1378.9
60.8254,1375.24
60.8594,1355.56
60.8934,1319.29
60.9274,1401.54
60.9614,1362.37
60.9954,1370.99
61.0294,1376.78
61.0634,1343.25
61.0974,1392.48
61.1314,1372.55
61.1654,1317.99
61.1994,1345.14
61.2334,1396.3
61.2674,1368.47
61.3014,1363.95
61.3354,1347.98
61.3694,1378.47
61.4034,1395.34
61.4374,1392.99
61.4714,1283.87
61.5054,1288.25
61.5394,1370.86
61.5734,1333.53
61.6074,1311.53
61.6414,1387.87
61.6754,1364.99
61.7094,1364.4
61.7434,1359.08
61.7774,1378.56
61.8114,1354.06
61.8454,1365.15
61.8794,1346.85
61.9134,1373.87
61.9474,1436.67
61.9814,1402.51
62.0154,1336.48
62.0494,1347.37
62.0834,1391.19
62.1174,1437.41
62.1514,1393.74
62.1854,1383.66
62.2194,1379.19
62.2534,1421.05
62.2874,1447.23
62.3214,1509.6
62.3554,1479.73
62.3894,1401.42
62.4234,1513.06
62.4574,1476.99
62.4914,1511.16
62.5254,1603.83
62.5594,1618.29
62.5934,1745.15
62.6274,1777.95
62.6614,1760.43
62.6954,1700.1
62.7294,1671.91
62.7634,1755.07
62.7974,1710.39
62.8314,1778.35
62.8654,1702.62
62.8994,1794.28
62.9334,1876.93
62.9674,1854.66
63.0014,1781
63.0354,1766.73
63.0694,1764.28
63.1034,1785.91
63.1374,1786.33
63.1714,1677.48
63.2054,1624.39
63.2394,1522.39
63.2734,1697.39
63.3074,1557.05
63.3414,1521.16
63.3754,1452.39
63.4094,1545.54
63.4434,1502.64
63.4774,1590.62
63.5114,1590.73
63.5454,1686.79
63.5794,1677.08
63.6134,1708.3
63.6474,1872.36
63.6814,1850.27
63.7154,1838.6
63.7494,1724.9
63.7834,1675.57
63.8174,1644.4
63.8514,1656.97
63.8854,1578.06
63.9194,1560.03
63.9534,1425.53
63.9874,1436.14
64.0214,1411.56
64.0554,1412.16
64.0894,1406.18
64.1234,1406.14
64.1574,1359.52
64.1914,1345.24
64.2254,1335.63
64.2594,1325.37
64.2934,1278.16
64.3274,1370.12
64.3614,1254.72
64.3954,1344.02
64.4294,1290.76
64.4634,1338.22
64.4974,1386.66
64.5314,1354.74
64.5654,1379.07
64.5994,1328.98
64.6334,1306.83
64.6674,1324.77
64.7014,1347.47
64.7354,1375.38
64.7694,1386.42
64.8034,1293.42
64.8374,1335.86
64.8714,1355.8
64.9054,1363.8
64.9394,1333.1
64.9734,1331.18
65.0074,1352.63
65.0414,1367.58
65.0754,1306.29
65.1094,1316.82
65.1434,1357.62
65.1774,1305.76
65.2114,1272.7
65.2454,1276.41
65.2794,1337.14
65.3134,1303.04
65.3474,1310.29
65.3814,1350.72
65.4154,1348.11
65.4494,1369.52
65.4834,1360.06
65.5174,1340.3
65.5514,1328.53
65.5854,1383.16
65.6194,1332.44
65.6534,1345.83
65.6874,1343.93
65.7214,1333.23
65.7554,1369.94
65.7894,1420.56
65.8234,1370
65.8574,1329.99
65.8914,1353.04
65.9254,1325.33
65.9594,1315.05
65.9934,1392.78
66.0274,1396.15
66.0614,1344.92
66.0954,1439.89
66.1294,1384.75
66.1634,1498.79
66.1974,1442.9
66.2314,1421.72
66.2654,1440.4
66.2994,1351.19
66.3334,1366.99
66.3674,1315.74
66.4014,1305.85
66.4354,1316.85
66.4694,1324.24
66.5034,1305.83
66.5374,1321.78
66.5714,1345.17
66.6054,1330.02
66.6394,1324.93
66.6734,1298.61
66.7074,1315.07
66.7414,1317.95
66.7754,1268.43
66.8094,1298.83
66.8434,1305.6
66.8774,1318.96
66.9114,1286.81
66.9454,1301.06
66.9794,1357.71
67.0134,1314.46
67.0474,1355.96
67.0814,1324.83
67.1154,1234.29
67.1494,1321.28
67.1834,1312.89
67.2174,1238.66
67.2514,1347.36
67.2854,1274.23
67.3194,1332.08
67.3534,1326.79
67.3874,1252.46
67.4214,1338.04
67.4554,1273.42
67.4894,1366.05
67.5234,1371.02
67.5574,1346.94
67.5914,1290.45
67.6254,1333.68
67.6594,1284.47
67.6934,1318.42
67.7274,1318.12
67.7614,1380.35
67.7954,1303.73
67.8294,1326.98
67.8634,1315.35
67.8974,1306.13
67.9314,1341.4
67.9654,1298.06
67.9994,1342.86
68.0334,1339.94
68.0674,1370.04
68.1014,1314.12
68.1354,1348.17
68.1694,1267.56
68.2034,1355.18
68.2374,1502.25
68.2714,1441.12
68.3054,1427.09
68.3394,1397.97
68.3734,1344.57
68.4074,1300
68.4414,1420.74
68.4754,1425.39
68.5094,1480.09
68.5434,1380.43
68.5774,1377.26
68.6114,1349.25
68.6454,1333.24
68.6794,1352.5
68.7134,1367.98
68.7474,1286.03
68.7814,1287.47
68.8154,1343.08
68.8494,1336.17
68.8834,1260
68.9174,1331.82
68.9514,1308.03
68.9854,1286.82
69.0194,1385.02
69.0534,1354.3
69.0874,1340.05
69.1214,1319.29
69.1554,1299.44
69.1894,1432.94
69.2234,1356.96
69.2574,1275.25
69.2914,1268.41
69.3254,1330.79
69.3594,1333.02
69.3934,1300.74
69.4274,1300.98
69.4614,1314.91
69.4954,1318.92
69.5294,1291.92
69.5634,1365.55
69.5974,1292.74
69.6314,1301.83
69.6654,1299.55
69.6994,1239.86
69.7334,1309.89
69.7674,1285.13
69.8014,1260.33
69.8354,1285.92
69.8694,1310.78
69.9034,1252.07
69.9374,1328.62
69.9714,1271.21
69.9884,1314.88