File: herald_visualization/Delia_Scripts/CoF3/CoF3_1to1_KS6Lgraphite/RR_ASC_20mins_CoF3/Re-analyzed_250227_scanned_240925-CoF3_1to1_KS6Lgraphite-20min_milled-20-70deg_40min.csv
2Theta,Intensity
20.0254,16447.5
20.0594,16594.4
20.0934,16519.1
20.1274,16367.9
20.1614,16588.5
20.1954,16338.1
20.2294,16465.1
20.2634,16414.3
20.2974,16393
20.3314,16310.1
20.3654,16465.6
20.3994,16399
20.4334,16255.6
20.4674,16137.3
20.5014,16421.2
20.5354,16199
20.5694,16200.2
20.6034,16125.3
20.6374,16041.1
20.6714,15997.9
20.7054,16212.5
20.7394,15972.3
20.7734,15992.7
20.8074,16140.6
20.8414,16013.2
20.8754,16071.3
20.9094,15979
20.9434,15941.7
20.9774,16112.5
21.0114,15957.2
21.0454,15904.8
21.0794,15904
21.1134,15901.4
21.1474,15794.1
21.1814,15908.3
21.2154,16028.7
21.2494,15687.4
21.2834,15805
21.3174,15743.3
21.3514,15624.2
21.3854,15700.1
21.4194,15643.6
21.4534,15679.7
21.4874,15721.4
21.5214,15666.3
21.5554,15738.2
21.5894,15638.9
21.6234,15629.3
21.6574,15623.3
21.6914,15632.8
21.7254,15610.6
21.7594,15434
21.7934,15514.8
21.8274,15616.5
21.8614,15394.2
21.8954,15611.3
21.9294,15620.7
21.9634,15604.9
21.9974,15497.1
22.0314,15246.4
22.0654,15388.2
22.0994,15482.6
22.1334,15430.9
22.1674,15524.6
22.2014,15432
22.2354,15034.1
22.2694,15076.4
22.3034,15391.3
22.3374,15312.7
22.3714,15133.1
22.4054,15117.7
22.4394,15305.9
22.4734,15276.1
22.5074,15082.5
22.5414,15256.2
22.5754,15139.6
22.6094,15099.3
22.6434,15174.9
22.6774,15053.8
22.7114,15056.7
22.7454,15064.8
22.7794,15108.3
22.8134,15104.6
22.8474,15246.6
22.8814,14973.9
22.9154,15086.1
22.9494,14858.6
22.9834,14929.4
23.0174,14923.9
23.0514,14847
23.0854,14850.9
23.1194,14816.3
23.1534,14739.2
23.1874,14901.3
23.2214,15020.2
23.2554,14792.3
23.2894,14820.7
23.3234,14725
23.3574,14833.2
23.3914,14965
23.4254,14922.9
23.4594,14828.7
23.4934,14927.2
23.5274,14974.4
23.5614,14853
23.5954,14988.4
23.6294,15029.4
23.6634,14953.5
23.6974,15009.9
23.7314,14939.5
23.7654,15099.1
23.7994,15256.1
23.8334,15205.3
23.8674,15126.1
23.9014,15465
23.9354,15396.6
23.9694,15547
24.0034,15760.5
24.0374,15795.3
24.0714,16068.2
24.1054,16362.2
24.1394,16694.2
24.1734,17147.3
24.2074,17286.5
24.2414,17871.6
24.2754,18508.3
24.3094,19130.7
24.3434,19701.5
24.3774,20258.5
24.4114,20660
24.4454,21006
24.4794,20831
24.5134,20398.2
24.5474,19528.6
24.5814,19208.7
24.6154,18549.8
24.6494,17915.3
24.6834,17382.9
24.7174,16728
24.7514,16513.2
24.7854,16180.3
24.8194,15822.7
24.8534,15754.5
24.8874,15465.8
24.9214,15322.9
24.9554,15419.9
24.9894,15046.3
25.0234,15034.2
25.0574,14959.5
25.0914,14778.8
25.1254,14702.5
25.1594,14811.5
25.1934,14526
25.2274,14754.4
25.2614,14737.8
25.2954,14661.9
25.3294,14583.9
25.3634,14679
25.3974,14720.6
25.4314,14542.7
25.4654,14658.6
25.4994,14683.4
25.5334,14590.8
25.5674,14522.7
25.6014,14745.8
25.6354,14465.8
25.6694,14711.4
25.7034,14451.5
25.7374,14398.6
25.7714,14418.7
25.8054,14727.3
25.8394,14441.6
25.8734,14571
25.9074,14372
25.9414,14620.1
25.9754,14461.9
26.0094,14741.2
26.0434,14676.3
26.0774,14567.4
26.1114,14521.6
26.1454,14750.7
26.1794,14701.4
26.2134,14605.4
26.2474,14716.2
26.2814,14719.6
26.3154,14665
26.3494,14591.1
26.3834,14904.2
26.4174,14768.9
26.4514,14719.6
26.4854,14666
26.5194,14744.8
26.5534,14747.8
26.5874,14732.7
26.6214,14808
26.6554,14765
26.6894,14690.3
26.7234,14768.4
26.7574,14824.4
26.7914,14753.3
26.8254,14667.1
26.8594,14828.4
26.8934,14816.1
26.9274,14612.7
26.9614,14679.6
26.9954,14628
27.0294,14503.5
27.0634,14535.7
27.0974,14606.5
27.1314,14432.3
27.1654,14318.8
27.1994,14424.8
27.2334,14197.5
27.2674,14322.8
27.3014,14286.4
27.3354,14232
27.3694,14067.6
27.4034,14267.7
27.4374,14207.4
27.4714,14217.5
27.5054,14047.1
27.5394,14083.1
27.5734,14343.7
27.6074,13920.8
27.6414,14324.8
27.6754,13963.2
27.7094,14033.1
27.7434,14141.9
27.7774,14173.3
27.8114,14158.5
27.8454,14064.2
27.8794,14120
27.9134,14062.8
27.9474,14102.8
27.9814,13915.1
28.0154,14115.1
28.0494,14003.5
28.0834,13992.8
28.1174,13934
28.1514,13875
28.1854,13947.5
28.2194,14058.3
28.2534,14056.4
28.2874,13872.7
28.3214,13875.5
28.3554,13848.1
28.3894,13947.5
28.4234,14037.8
28.4574,13796.9
28.4914,13804.6
28.5254,13790.2
28.5594,13889.9
28.5934,13938.4
28.6274,13928.1
28.6614,13864.7
28.6954,13839
28.7294,13713.3
28.7634,13729.4
28.7974,13883.7
28.8314,13834.5
28.8654,13794.9
28.8994,13796.9
28.9334,13735.8
28.9674,13749.9
29.0014,13793
29.0354,13836.1
29.0694,13838.8
29.1034,13730.2
29.1374,13669
29.1714,13693.3
29.2054,13670.2
29.2394,13790.4
29.2734,13825.5
29.3074,13728.6
29.3414,13747.1
29.3754,13678.4
29.4094,13748.9
29.4434,13597.1
29.4774,13601.1
29.5114,13615.1
29.5454,13556.9
29.5794,13666
29.6134,13752.7
29.6474,13750.8
29.6814,13815.2
29.7154,13625.6
29.7494,13396.6
29.7834,13745.6
29.8174,13746.6
29.8514,13574.5
29.8854,13613.8
29.9194,13526.9
29.9534,13609.7
29.9874,13715
30.0214,13273.6
30.0554,13673.1
30.0894,13395.8
30.1234,13465.1
30.1574,13448
30.1914,13388
30.2254,13610.4
30.2594,13552.9
30.2934,13461.5
30.3274,13344.6
30.3614,13576.7
30.3954,13605.1
30.4294,13538.4
30.4634,13566.2
30.4974,13418.7
30.5314,13364
30.5654,13482.7
30.5994,13179.5
30.6334,13321.7
30.6674,13436.5
30.7014,13280.8
30.7354,13587.5
30.7694,13342.9
30.8034,13293.2
30.8374,13506.7
30.8714,13633.6
30.9054,13520.8
30.9394,13307.8
30.9734,13629.9
31.0074,13274.2
31.0414,13487.8
31.0754,13465.2
31.1094,13337.2
31.1434,13397.8
31.1774,13273.3
31.2114,13244.5
31.2454,13476.5
31.2794,13283.7
31.3134,13415
31.3474,13391.1
31.3814,13529.7
31.4154,13434
31.4494,13320.7
31.4834,13291.9
31.5174,13655.7
31.5514,13330.3
31.5854,13196.9
31.6194,13388
31.6534,13382.9
31.6874,13364.3
31.7214,13479.4
31.7554,13363.3
31.7894,13476.9
31.8234,13258.9
31.8574,13342.3
31.8914,13288.4
31.9254,13229.4
31.9594,13364.2
31.9934,13355.8
32.0274,13358.5
32.0614,13528
32.0954,13174.6
32.1294,13273.4
32.1634,13353.8
32.1974,13238
32.2314,13064.7
32.2654,13364.6
32.2994,13350.9
32.3334,13206.8
32.3674,13019.6
32.4014,13320.2
32.4354,13272
32.4694,13302.7
32.5034,13353.7
32.5374,13286.8
32.5714,13257.6
32.6054,13433.6
32.6394,13232
32.6734,13507.1
32.7074,13278.7
32.7414,13369.8
32.7754,13196.9
32.8094,13145.1
32.8434,13413.5
32.8774,13229.9
32.9114,13263.8
32.9454,13276.6
32.9794,13300.8
33.0134,13170.5
33.0474,13257.2
33.0814,13317.9
33.1154,13418.1
33.1494,13271.1
33.1834,13309.8
33.2174,13309.1
33.2514,13272.4
33.2854,13358.2
33.3194,13070.7
33.3534,13296.2
33.3874,13458.3
33.4214,13376.3
33.4554,13214.7
33.4894,13562.7
33.5234,13492.4
33.5574,13317.2
33.5914,13521.8
33.6254,13466.9
33.6594,13320.3
33.6934,13875.3
33.7274,13795.5
33.7614,13704.3
33.7954,13623.5
33.8294,13705.5
33.8634,13652.4
33.8974,13927.9
33.9314,13845.3
33.9654,14066.3
33.9994,14080.4
34.0334,13967.8
34.0674,13917
34.1014,13830.2
34.1354,13769.9
34.1694,13959.9
34.2034,13695.7
34.2374,13587.2
34.2714,13644.5
34.3054,13748.3
34.3394,13582.1
34.3734,13616
34.4074,13523
34.4414,13516.2
34.4754,13262.3
34.5094,13360.9
34.5434,13392.9
34.5774,13342.1
34.6114,13415.5
34.6454,13337.9
34.6794,13229.4
34.7134,13183.9
34.7474,13540.7
34.7814,13226.4
34.8154,13206.4
34.8494,13201.4
34.8834,13311.3
34.9174,13188.9
34.9514,13170.9
34.9854,13257.7
35.0194,13162.5
35.0534,13057.4
35.0874,13133.4
35.1214,13257.5
35.1554,13294.8
35.1894,13359.8
35.2234,13078.8
35.2574,13029.2
35.2914,12977.4
35.3254,13290.1
35.3594,13270.5
35.3934,13379.3
35.4274,13221.3
35.4614,13193.5
35.4954,13238.7
35.5294,13201.1
35.5634,13248.6
35.5974,13188.8
35.6314,13454.4
35.6654,13369.8
35.6994,13264.1
35.7334,13232.2
35.7674,13325.2
35.8014,13086.3
35.8354,13395.5
35.8694,13202.1
35.9034,13241.7
35.9374,13039.9
35.9714,13086.5
36.0054,13091.8
36.0394,13299
36.0734,13129.7
36.1074,13058.7
36.1414,13055.3
36.1754,13092.3
36.2094,13020.1
36.2434,13036
36.2774,12973.8
36.3114,12986.1
36.3454,12952.9
36.3794,12939
36.4134,13083.2
36.4474,13024.5
36.4814,12974.1
36.5154,12960
36.5494,13013.8
36.5834,12990
36.6174,12977
36.6514,12997.2
36.6854,12968.1
36.7194,12892.7
36.7534,13175.6
36.7874,12895.5
36.8214,12828.7
36.8554,13154.6
36.8894,12906.1
36.9234,12984.5
36.9574,12959.6
36.9914,12968.4
37.0254,12891.2
37.0594,12734.5
37.0934,12899.2
37.1274,12874.5
37.1614,12801.2
37.1954,12808.1
37.2294,12847.5
37.2634,12825
37.2974,12920.6
37.3314,13054
37.3654,12851
37.3994,12832.9
37.4334,12864.5
37.4674,12807.8
37.5014,12919.2
37.5354,12923.6
37.5694,13037.6
37.6034,12838.3
37.6374,13093.3
37.6714,12734.4
37.7054,12883.8
37.7394,12866.3
37.7734,12938.7
37.8074,12730.6
37.8414,12637.9
37.8754,12842.8
37.9094,12682.4
37.9434,12754.2
37.9774,12929.5
38.0114,12754.4
38.0454,12863.4
38.0794,12774.9
38.1134,12865
38.1474,12947.8
38.1814,12935.4
38.2154,12882.3
38.2494,12838
38.2834,12950.7
38.3174,12846.4
38.3514,12860.1
38.3854,12802.4
38.4194,12720.3
38.4534,12728.7
38.4874,12841.7
38.5214,12732.3
38.5554,12927.9
38.5894,12647.5
38.6234,12784.2
38.6574,12779
38.6914,12902
38.7254,12814.1
38.7594,12712
38.7934,12904.3
38.8274,12785.2
38.8614,12763.7
38.8954,12925.3
38.9294,12819.9
38.9634,12954.7
38.9974,12865.9
39.0314,13024.4
39.0654,12847.8
39.0994,12874.9
39.1334,12879.8
39.1674,12883.8
39.2014,12967.8
39.2354,12780.6
39.2694,13053.6
39.3034,12876.3
39.3374,12882.2
39.3714,12946.4
39.4054,12825.6
39.4394,12798
39.4734,12881.6
39.5074,12933.2
39.5414,12867
39.5754,12700.3
39.6094,12956.3
39.6434,12842.4
39.6774,12775.8
39.7114,12707
39.7454,12789.3
39.7794,12648.5
39.8134,12659
39.8474,12758.5
39.8814,12924.7
39.9154,12795
39.9494,12999.1
39.9834,12821.8
40.0174,12729
40.0514,12823.2
40.0854,12656.4
40.1194,12811.4
40.1534,12948.8
40.1874,12703.8
40.2214,12855.6
40.2554,12864.4
40.2894,12809.6
40.3234,12807.4
40.3574,12758
40.3914,12761.2
40.4254,12867.8
40.4594,12723.4
40.4934,12820.6
40.5274,12984.6
40.5614,12947.7
40.5954,12986.4
40.6294,13006.9
40.6634,12847.3
40.6974,13057.2
40.7314,13120.6
40.7654,12974.2
40.7994,13067.6
40.8334,12945.8
40.8674,13005.8
40.9014,13031.4
40.9354,13086.8
40.9694,13060
41.0034,13165.6
41.0374,13034.1
41.0714,13262.5
41.1054,13176.1
41.1394,13364.1
41.1734,13260
41.2074,13409.1
41.2414,13445.7
41.2754,13316.7
41.3094,13405.3
41.3434,13426.7
41.3774,13484
41.4114,13433.6
41.4454,13296.6
41.4794,13336.4
41.5134,13191.4
41.5474,13344
41.5814,13292.5
41.6154,13133.9
41.6494,13033.7
41.6834,13168
41.7174,13029
41.7514,13139.5
41.7854,13142.2
41.8194,13235.9
41.8534,12881.4
41.8874,12829.1
41.9214,12839.4
41.9554,12778.6
41.9894,12836.2
42.0234,12799.8
42.0574,12836.9
42.0914,12910.5
42.1254,12862.1
42.1594,12797.1
42.1934,12804.9
42.2274,12580.4
42.2614,12576.6
42.2954,12836.3
42.3294,12739.3
42.3634,12746.1
42.3974,12654.8
42.4314,12756.6
42.4654,12682.7
42.4994,12879.1
42.5334,12745.9
42.5674,12832.9
42.6014,12647.4
42.6354,12755.6
42.6694,12630.6
42.7034,12585.9
42.7374,12815.4
42.7714,12568
42.8054,12687.4
42.8394,12670
42.8734,12610
42.9074,12842.7
42.9414,12643.5
42.9754,12616.8
43.0094,12918.7
43.0434,12755.8
43.0774,12699.4
43.1114,12778.1
43.1454,12956.3
43.1794,12804.3
43.2134,12887.7
43.2474,12930.6
43.2814,12863
43.3154,12872.7
43.3494,12953.7
43.3834,13010
43.4174,13389
43.4514,13140.1
43.4854,13327.4
43.5194,13406.1
43.5534,13467.9
43.5874,13652
43.6214,13970.7
43.6554,13770.1
43.6894,13558.8
43.7234,13471.3
43.7574,13480.1
43.7914,13449.1
43.8254,13101.5
43.8594,13078.1
43.8934,13105.7
43.9274,12958.5
43.9614,12839.7
43.9954,12812.7
44.0294,12794.2
44.0634,12727.1
44.0974,12706.3
44.1314,12862.2
44.1654,12568.3
44.1994,12709.3
44.2334,12695.3
44.2674,12785
44.3014,12698.9
44.3354,12658.7
44.3694,12759.8
44.4034,12685.6
44.4374,12731.1
44.4714,12584.8
44.5054,12940.7
44.5394,12682.5
44.5734,12681.9
44.6074,12461.1
44.6414,12786.8
44.6754,12723
44.7094,12706.9
44.7434,12612.7
44.7774,12556
44.8114,12741.1
44.8454,12402.3
44.8794,12754.6
44.9134,12730.7
44.9474,12571.2
44.9814,12692.9
45.0154,12812.3
45.0494,12553.8
45.0834,12682.4
45.1174,12510.1
45.1514,12522.5
45.1854,12827.4
45.2194,12448.3
45.2534,12436
45.2874,12582.4
45.3214,12616.1
45.3554,12647.6
45.3894,12639.9
45.4234,12606.8
45.4574,12480.7
45.4914,12686.9
45.5254,12712.6
45.5594,12344.9
45.5934,12586.8
45.6274,12557.5
45.6614,12772.9
45.6954,12468.6
45.7294,12437.4
45.7634,12527.7
45.7974,12533.8
45.8314,12502.4
45.8654,12465.7
45.8994,12480.3
45.9334,12334.7
45.9674,12617.7
46.0014,12683.5
46.0354,12584.5
46.0694,12497.8
46.1034,12610.4
46.1374,12545.7
46.1714,12623.2
46.2054,12534.7
46.2394,12470.4
46.2734,12433.8
46.3074,12555.4
46.3414,12504.6
46.3754,12486.6
46.4094,12473.7
46.4434,12534.7
46.4774,12406
46.5114,12527.6
46.5454,12643.2
46.5794,12704.3
46.6134,12305.7
46.6474,12537.5
46.6814,12471.1
46.7154,12687.4
46.7494,12535.3
46.7834,12421.6
46.8174,12535.2
46.8514,12484.4
46.8854,12481.1
46.9194,12506.8
46.9534,12615.1
46.9874,12418.9
47.0214,12468.9
47.0554,12240.7
47.0894,12458.1
47.1234,12516.6
47.1574,12435.4
47.1914,12553.7
47.2254,12476.4
47.2594,12417.8
47.2934,12586.2
47.3274,12509.4
47.3614,12534.5
47.3954,12664
47.4294,12502.1
47.4634,12417.1
47.4974,12440
47.5314,12428
47.5654,12555
47.5994,12328.7
47.6334,12691.1
47.6674,12384.3
47.7014,12478.1
47.7354,12529.9
47.7694,12473.3
47.8034,12485.5
47.8374,12504.5
47.8714,12608.6
47.9054,12391.9
47.9394,12515.1
47.9734,12519.4
48.0074,12404
48.0414,12455.4
48.0754,12361.3
48.1094,12282.1
48.1434,12434.8
48.1774,12362
48.2114,12337.5
48.2454,12493.4
48.2794,12403.3
48.3134,12430.2
48.3474,12436.8
48.3814,12460.6
48.4154,12580.2
48.4494,12451.1
48.4834,12644.1
48.5174,12517.5
48.5514,12533.5
48.5854,12511.1
48.6194,12446
48.6534,12406.8
48.6874,12375.7
48.7214,12491.5
48.7554,12510.2
48.7894,12330
48.8234,12468
48.8574,12607.2
48.8914,12490.3
48.9254,12562.9
48.9594,12476.2
48.9934,12382.7
49.0274,12510.5
49.0614,12540.9
49.0954,12501.4
49.1294,12386.6
49.1634,12499.2
49.1974,12388.2
49.2314,12368.1
49.2654,12552.8
49.2994,12473.2
49.3334,12520
49.3674,12372.8
49.4014,12489.3
49.4354,12775.1
49.4694,12484.4
49.5034,12527.5
49.5374,12654.4
49.5714,12564.6
49.6054,12538.7
49.6394,12793.7
49.6734,12846.8
49.7074,12539.3
49.7414,12812.6
49.7754,12870.5
49.8094,12813.7
49.8434,12926.3
49.8774,13059.9
49.9114,13044.4
49.9454,13157.9
49.9794,13084.6
50.0134,13147.4
50.0474,13086.5
50.0814,13408.7
50.1154,13346.3
50.1494,13359.8
50.1834,13230.4
50.2174,13178.9
50.2514,13081.5
50.2854,13197.8
50.3194,13143.5
50.3534,12953.5
50.3874,12905.4
50.4214,12979.2
50.4554,13021.6
50.4894,12822.1
50.5234,12775.7
50.5574,12947.9
50.5914,12671.4
50.6254,12711.5
50.6594,12860.5
50.6934,12774.2
50.7274,12887.2
50.7614,12723
50.7954,12921.4
50.8294,12586.4
50.8634,12585.1
50.8974,12845.9
50.9314,12741.4
50.9654,12703
50.9994,12660.8
51.0334,12606.4
51.0674,12635.2
51.1014,12664.1
51.1354,12660.7
51.1694,12630.5
51.2034,12532.7
51.2374,12551.5
51.2714,12722.8
51.3054,12573
51.3394,12364.7
51.3734,12706.6
51.4074,12609.7
51.4414,12378.8
51.4754,12461.5
51.5094,12464.3
51.5434,12427.8
51.5774,12570.4
51.6114,12451.1
51.6454,12502.2
51.6794,12512.4
51.7134,12546.5
51.7474,12436.8
51.7814,12464.2
51.8154,12304.7
51.8494,12431.9
51.8834,12503.2
51.9174,12621.1
51.9514,12569.2
51.9854,12448.4
52.0194,12575
52.0534,12554.4
52.0874,12656.7
52.1214,12626.2
52.1554,12648.3
52.1894,12684.2
52.2234,12610.5
52.2574,12583.6
52.2914,12481.6
52.3254,12651.6
52.3594,12624
52.3934,12502.7
52.4274,12683.3
52.4614,12555.4
52.4954,12411.6
52.5294,12583.7
52.5634,12810.7
52.5974,12552.2
52.6314,12623.3
52.6654,12471.4
52.6994,12563.1
52.7334,12331.6
52.7674,12676.2
52.8014,12481.4
52.8354,12386.3
52.8694,12527.3
52.9034,12477.1
52.9374,12449.3
52.9714,12484.2
53.0054,12374.7
53.0394,12473.6
53.0734,12504.3
53.1074,12478.3
53.1414,12466.7
53.1754,12318.1
53.2094,12473
53.2434,12491.8
53.2774,12332.5
53.3114,12582
53.3454,12468.9
53.3794,12339.8
53.4134,12414.5
53.4474,12395.4
53.4814,12249.6
53.5154,12412.8
53.5494,12438.7
53.5834,12518.2
53.6174,12310.3
53.6514,12486.4
53.6854,12411.7
53.7194,12412.5
53.7534,12504.2
53.7874,12205.7
53.8214,12413.7
53.8554,12450.4
53.8894,12201.8
53.9234,12313.4
53.9574,12294.8
53.9914,12430.7
54.0254,12490
54.0594,12558.5
54.0934,12409.6
54.1274,12443.2
54.1614,12508.9
54.1954,12334.8
54.2294,12360.2
54.2634,12418.5
54.2974,12502.4
54.3314,12221.9
54.3654,12606.4
54.3994,12406.7
54.4334,12412.5
54.4674,12554.9
54.5014,12418.3
54.5354,12429.6
54.5694,12681.9
54.6034,12457
54.6374,12570.5
54.6714,12398.7
54.7054,12556.9
54.7394,12557.6
54.7734,12698.9
54.8074,12675.6
54.8414,12698.7
54.8754,12826.2
54.9094,12651.7
54.9434,12673.1
54.9774,12893.4
55.0114,12981.1
55.0454,12935.4
55.0794,12827.1
55.1134,13042.6
55.1474,13032.8
55.1814,12968.3
55.2154,13180.5
55.2494,13287.8
55.2834,13125.7
55.3174,13185.4
55.3514,13417.4
55.3854,13105
55.4194,13286
55.4534,13231.8
55.4874,13195.1
55.5214,13102.2
55.5554,13139.3
55.5894,13005.1
55.6234,13090.2
55.6574,12962.5
55.6914,12829.8
55.7254,12982.9
55.7594,12848.1
55.7934,12791.4
55.8274,12737.8
55.8614,12714.5
55.8954,12642.6
55.9294,12707.1
55.9634,12783.7
55.9974,12527.5
56.0314,12637.2
56.0654,12721
56.0994,12750.4
56.1334,12710.1
56.1674,12562.1
56.2014,12627
56.2354,12659.7
56.2694,12631.4
56.3034,12406.1
56.3374,12686.8
56.3714,12486.6
56.4054,12487.8
56.4394,12446.5
56.4734,12535.1
56.5074,12520.9
56.5414,12502.4
56.5754,12607.1
56.6094,12634
56.6434,12406.4
56.6774,12459.5
56.7114,12507.5
56.7454,12535
56.7794,12596.6
56.8134,12444.6
56.8474,12509.2
56.8814,12369.2
56.9154,12681.5
56.9494,12596.5
56.9834,12361.3
57.0174,12522.7
57.0514,12542.8
57.0854,12490
57.1194,12427.6
57.1534,12606.6
57.1874,12568.9
57.2214,12381.7
57.2554,12563.5
57.2894,12670.7
57.3234,12371.7
57.3574,12576.5
57.3914,12526.6
57.4254,12610
57.4594,12561.6
57.4934,12605.9
57.5274,12565.1
57.5614,12650.9
57.5954,12822
57.6294,12722.6
57.6634,12582.2
57.6974,12644.2
57.7314,12670.2
57.7654,12741.8
57.7994,12739.1
57.8334,12603.5
57.8674,12515.6
57.9014,12479.1
57.9354,12625.4
57.9694,12425.6
58.0034,12623.5
58.0374,12520.5
58.0714,12611.4
58.1054,12556.7
58.1394,12568
58.1734,12517.3
58.2074,12495.2
58.2414,12552.9
58.2754,12442.8
58.3094,12330.2
58.3434,12312.1
58.3774,12378.7
58.4114,12343.3
58.4454,12366
58.4794,12366.9
58.5134,12478.9
58.5474,12444.1
58.5814,12412.3
58.6154,12467.4
58.6494,12417.7
58.6834,12268
58.7174,12313.9
58.7514,12314.7
58.7854,12475.1
58.8194,12495.8
58.8534,12443.7
58.8874,12330
58.9214,12461.6
58.9554,12319.2
58.9894,12367.6
59.0234,12222
59.0574,12110.5
59.0914,12245.5
59.1254,12388.9
59.1594,12345
59.1934,12419.2
59.2274,12152.7
59.2614,12327.6
59.2954,12400.9
59.3294,12148.7
59.3634,12321.8
59.3974,12275.1
59.4314,12463.4
59.4654,12323
59.4994,12444.4
59.5334,12458.7
59.5674,12395.6
59.6014,12356.7
59.6354,12548.8
59.6694,12317.9
59.7034,12473.6
59.7374,12329.8
59.7714,12390.5
59.8054,12389.4
59.8394,12452.9
59.8734,12389.3
59.9074,12426.5
59.9414,12485.6
59.9754,12283.5
60.0094,12365.9
60.0434,12428.9
60.0774,12378.8
60.1114,12293
60.1454,12293.6
60.1794,12272.1
60.2134,12623.6
60.2474,12323.7
60.2814,12267.9
60.3154,12061.6
60.3494,12255
60.3834,12329
60.4174,12360.9
60.4514,12386.2
60.4854,12333.1
60.5194,12460.4
60.5534,12262.1
60.5874,12355.5
60.6214,12356.5
60.6554,12274.1
60.6894,12410.3
60.7234,12300.9
60.7574,12233.6
60.7914,12318
60.8254,12358.1
60.8594,12235.2
60.8934,12210.2
60.9274,12367.2
60.9614,12303
60.9954,12497.2
61.0294,12249.3
61.0634,12253.4
61.0974,12193.2
61.1314,12487.2
61.1654,12328.7
61.1994,12353.4
61.2334,12265.9
61.2674,12265.9
61.3014,12319.7
61.3354,12127.8
61.3694,12107.2
61.4034,12251.7
61.4374,12326.2
61.4714,12468.7
61.5054,12388.4
61.5394,12229.2
61.5734,12255.6
61.6074,12370.5
61.6414,12359.9
61.6754,12364.3
61.7094,12111.5
61.7434,12229.8
61.7774,12284
61.8114,12321.3
61.8454,12246.2
61.8794,12387.3
61.9134,12462.4
61.9474,12263
61.9814,12454.8
62.0154,12281.8
62.0494,12367.3
62.0834,12217.2
62.1174,12506.9
62.1514,12134.2
62.1854,12443.5
62.2194,12314.4
62.2534,12311.7
62.2874,12473.3
62.3214,12302.9
62.3554,12407.9
62.3894,12193.2
62.4234,12233.4
62.4574,12339.2
62.4914,12314.2
62.5254,12230.6
62.5594,12298.1
62.5934,12349.6
62.6274,12413.6
62.6614,12429.4
62.6954,12380.6
62.7294,12288.2
62.7634,12408
62.7974,12495.5
62.8314,12402.4
62.8654,12530.8
62.8994,12377.8
62.9334,12492.8
62.9674,12386.8
63.0014,12530.1
63.0354,12690.1
63.0694,12348.8
63.1034,12612.3
63.1374,12726.5
63.1714,12426.3
63.2054,12479.1
63.2394,12572
63.2734,12361.7
63.3074,12290.5
63.3414,12530.6
63.3754,12455.5
63.4094,12673.6
63.4434,12532.9
63.4774,12562.8
63.5114,12344.6
63.5454,12503
63.5794,12395.5
63.6134,12646.7
63.6474,12587.7
63.6814,12539
63.7154,12454.7
63.7494,12345.6
63.7834,12626.9
63.8174,12459.8
63.8514,12391.3
63.8854,12382.8
63.9194,12523.7
63.9534,12436.8
63.9874,12313.3
64.0214,12394.9
64.0554,12474.2
64.0894,12512.8
64.1234,12504.1
64.1574,12410.7
64.1914,12206.5
64.2254,12275.6
64.2594,12451.9
64.2934,12408.5
64.3274,12652.3
64.3614,12321.3
64.3954,12574.1
64.4294,12489.2
64.4634,12430
64.4974,12396.6
64.5314,12431.5
64.5654,12338.2
64.5994,12357
64.6334,12369.7
64.6674,12514.8
64.7014,12301.6
64.7354,12280.8
64.7694,12170.1
64.8034,12283.6
64.8374,12451.3
64.8714,12281.6
64.9054,12428.4
64.9394,12306.5
64.9734,12341
65.0074,12369.9
65.0414,12330.9
65.0754,12182.7
65.1094,12234.2
65.1434,12203.3
65.1774,12187.7
65.2114,12464
65.2454,12394.7
65.2794,12414.5
65.3134,12423.4
65.3474,12235
65.3814,12308.4
65.4154,12292.1
65.4494,12379.1
65.4834,12437.4
65.5174,12239.3
65.5514,12397.2
65.5854,12245.5
65.6194,12272.1
65.6534,12327.9
65.6874,12417.9
65.7214,12237.7
65.7554,12198.9
65.7894,12306.9
65.8234,12182.3
65.8574,12260.2
65.8914,12167.6
65.9254,12125.6
65.9594,12254.4
65.9934,12214.5
66.0274,12240.5
66.0614,12283
66.0954,12102
66.1294,12312.7
66.1634,12244.4
66.1974,12092
66.2314,12310.5
66.2654,12427.9
66.2994,12251.1
66.3334,12356.1
66.3674,12292.5
66.4014,12247.9
66.4354,12144.7
66.4694,12349.1
66.5034,12347.2
66.5374,12237.6
66.5714,12306
66.6054,12338.9
66.6394,12239.7
66.6734,12221.6
66.7074,12270.2
66.7414,12375.7
66.7754,12222.7
66.8094,12395.3
66.8434,12267.4
66.8774,12215.9
66.9114,12239.3
66.9454,12296.6
66.9794,12300.9
67.0134,12282.4
67.0474,12291.9
67.0814,12062.2
67.1154,12257.4
67.1494,12201
67.1834,12105.9
67.2174,12110.3
67.2514,12132.3
67.2854,12175.3
67.3194,12340.9
67.3534,12311.1
67.3874,12224.9
67.4214,12378.9
67.4554,12317.4
67.4894,12203.1
67.5234,12257.2
67.5574,12349
67.5914,12200.3
67.6254,12224.9
67.6594,12224.8
67.6934,12266.7
67.7274,12100.1
67.7614,12333.8
67.7954,12192.1
67.8294,12117.6
67.8634,12226.9
67.8974,12148.7
67.9314,12211
67.9654,12143.5
67.9994,12261.3
68.0334,12292.6
68.0674,12344.7
68.1014,12221.8
68.1354,12240.9
68.1694,11999.2
68.2034,11874.8
68.2374,11965.3
68.2714,12021.9
68.3054,12148.5
68.3394,12086.3
68.3734,12141.5
68.4074,12094
68.4414,12027.2
68.4754,12049.8
68.5094,12137.6
68.5434,12076.6
68.5774,12127.3
68.6114,12160.6
68.6454,12233.2
68.6794,12130.3
68.7134,12225
68.7474,12290
68.7814,12259
68.8154,12172
68.8494,12125.9
68.8834,12104.1
68.9174,12113.6
68.9514,12233.8
68.9854,12253.8
69.0194,12289.8
69.0534,12293
69.0874,12215.7
69.1214,12100.1
69.1554,12060.1
69.1894,12218.6
69.2234,12276.8
69.2574,12181.4
69.2914,12347.9
69.3254,12133.8
69.3594,12080.9
69.3934,12237.8
69.4274,12172.4
69.4614,12060.7
69.4954,12165.5
69.5294,12251.3
69.5634,12211
69.5974,12014.3
69.6314,12162.7
69.6654,12164.9
69.6994,12206.1
69.7334,12039.4
69.7674,12092
69.8014,12229.4
69.8354,12188.2
69.8694,12176
69.9034,12193.2
69.9374,12084.5
69.9714,12287.2
69.9884,12141.1