File: herald_visualization/XRD_Plotting/Figures/MnF3/250205_20-70deg_40min_MnF3_as_received.csv
2Theta,Intensity
20.0084,5683.0
20.0418,5624.0
20.0752,5502.0
20.1086,5610.0
20.142,5490.0
20.1755,5465.0
20.2089,5483.0
20.2423,5563.0
20.2757,5428.0
20.3092,5502.0
20.3426,5478.0
20.376,5371.0
20.4094,5364.0
20.4428,5335.0
20.4763,5295.0
20.5097,5269.0
20.5431,5318.0
20.5765,5447.0
20.61,5330.0
20.6434,5321.0
20.6768,5128.0
20.7102,5138.0
20.7437,5082.0
20.7771,5133.0
20.8105,5165.0
20.8439,5217.0
20.8773,5245.0
20.9108,5240.0
20.9442,5108.0
20.9776,5211.0
21.011,5031.0
21.0445,5064.0
21.0779,4944.0
21.1113,4888.0
21.1447,4969.0
21.1781,5019.0
21.2116,4926.0
21.245,4924.0
21.2784,5122.0
21.3118,4968.0
21.3453,4958.0
21.3787,4886.0
21.4121,4739.0
21.4455,4764.0
21.4789,4654.0
21.5124,4827.0
21.5458,4801.0
21.5792,4955.0
21.6126,4883.0
21.6461,4771.0
21.6795,4764.0
21.7129,4707.0
21.7463,4705.0
21.7798,4807.0
21.8132,4674.0
21.8466,4740.0
21.88,4703.0
21.9134,4709.0
21.9469,4559.0
21.9803,4549.0
22.0137,4651.0
22.0471,4603.0
22.0806,4541.0
22.114,4527.0
22.1474,4464.0
22.1808,4474.0
22.2142,4431.0
22.2477,4512.0
22.2811,4505.0
22.3145,4500.0
22.3479,4569.0
22.3814,4466.0
22.4148,4386.0
22.4482,4482.0
22.4816,4325.0
22.515,4402.0
22.5485,4372.0
22.5819,4418.0
22.6153,4313.0
22.6487,4384.0
22.6822,4283.0
22.7156,4305.0
22.749,4220.0
22.7824,4262.0
22.8158,4324.0
22.8493,4191.0
22.8827,4137.0
22.9161,4217.0
22.9495,4153.0
22.983,4181.0
23.0164,4310.0
23.0498,4261.0
23.0832,4216.0
23.1167,4246.0
23.1501,4256.0
23.1835,4298.0
23.2169,4251.0
23.2503,4301.0
23.2838,4103.0
23.3172,4276.0
23.3506,4223.0
23.384,4280.0
23.4175,4177.0
23.4509,4143.0
23.4843,4296.0
23.5177,4329.0
23.5511,4299.0
23.5846,4535.0
23.618,4559.0
23.6514,4663.0
23.6848,4675.0
23.7183,5119.0
23.7517,5441.0
23.7851,6033.0
23.8185,6923.0
23.8519,8073.0
23.8854,10476.0
23.9188,14369.0
23.9522,19637.0
23.9856,23593.0
24.0191,19169.0
24.0525,14459.0
24.0859,9276.0
24.1193,6512.0
24.1528,5665.0
24.1862,5297.0
24.2196,4998.0
24.253,5128.0
24.2864,5126.0
24.3199,5062.0
24.3533,5359.0
24.3867,5811.0
24.4201,6606.0
24.4536,8063.0
24.487,10202.0
24.5204,13011.0
24.5538,11683.0
24.5872,9380.0
24.6207,7126.0
24.6541,5070.0
24.6875,4465.0
24.7209,4326.0
24.7544,4130.0
24.7878,4083.0
24.8212,3983.0
24.8546,3926.0
24.888,3840.0
24.9215,3889.0
24.9549,3803.0
24.9883,3914.0
25.0217,3982.0
25.0552,3728.0
25.0886,3937.0
25.122,3862.0
25.1554,3928.0
25.1888,3837.0
25.2223,3767.0
25.2557,3882.0
25.2891,3815.0
25.3225,3821.0
25.356,3878.0
25.3894,3945.0
25.4228,3949.0
25.4562,4130.0
25.4897,4124.0
25.5231,4256.0
25.5565,4466.0
25.5899,4680.0
25.6233,4758.0
25.6568,4777.0
25.6902,4848.0
25.7236,4695.0
25.757,4511.0
25.7905,4466.0
25.8239,4253.0
25.8573,4173.0
25.8907,3879.0
25.9241,3884.0
25.9576,3893.0
25.991,3695.0
26.0244,3862.0
26.0578,3783.0
26.0913,3527.0
26.1247,3774.0
26.1581,3580.0
26.1915,3664.0
26.2249,3641.0
26.2584,3688.0
26.2918,3595.0
26.3252,3763.0
26.3586,3524.0
26.3921,3513.0
26.4255,3513.0
26.4589,3553.0
26.4923,3570.0
26.5258,3556.0
26.5592,3685.0
26.5926,3618.0
26.626,3606.0
26.6594,3566.0
26.6929,3698.0
26.7263,3482.0
26.7597,3553.0
26.7931,3507.0
26.8266,3545.0
26.86,3593.0
26.8934,3506.0
26.9268,3538.0
26.9602,3477.0
26.9937,3569.0
27.0271,3474.0
27.0605,3442.0
27.0939,3585.0
27.1274,3529.0
27.1608,3641.0
27.1942,3459.0
27.2276,3447.0
27.261,3482.0
27.2945,3516.0
27.3279,3458.0
27.3613,3352.0
27.3947,3539.0
27.4282,3435.0
27.4616,3516.0
27.495,3466.0
27.5284,3403.0
27.5618,3401.0
27.5953,3331.0
27.6287,3446.0
27.6621,3349.0
27.6955,3418.0
27.729,3497.0
27.7624,3438.0
27.7958,3412.0
27.8292,3340.0
27.8627,3428.0
27.8961,3224.0
27.9295,3302.0
27.9629,3351.0
27.9963,3229.0
28.0298,3320.0
28.0632,3448.0
28.0966,3390.0
28.13,3379.0
28.1635,3324.0
28.1969,3395.0
28.2303,3306.0
28.2637,3258.0
28.2971,3303.0
28.3306,3400.0
28.364,3398.0
28.3974,3413.0
28.4308,3318.0
28.4643,3294.0
28.4977,3177.0
28.5311,3222.0
28.5645,3322.0
28.5979,3264.0
28.6314,3292.0
28.6648,3258.0
28.6982,3246.0
28.7316,3245.0
28.7651,3326.0
28.7985,3239.0
28.8319,3238.0
28.8653,3190.0
28.8988,3191.0
28.9322,3252.0
28.9656,3277.0
28.999,3240.0
29.0324,3255.0
29.0659,3208.0
29.0993,3309.0
29.1327,3254.0
29.1661,3290.0
29.1996,3176.0
29.233,3187.0
29.2664,3172.0
29.2998,3197.0
29.3332,3159.0
29.3667,3166.0
29.4001,3213.0
29.4335,3050.0
29.4669,3195.0
29.5004,3262.0
29.5338,3210.0
29.5672,3195.0
29.6006,3103.0
29.634,3187.0
29.6675,3203.0
29.7009,3153.0
29.7343,3053.0
29.7677,3053.0
29.8012,3134.0
29.8346,3128.0
29.868,3133.0
29.9014,3139.0
29.9348,3167.0
29.9683,3177.0
30.0017,3136.0
30.0351,3090.0
30.0685,3082.0
30.102,3137.0
30.1354,3147.0
30.1688,3177.0
30.2022,3121.0
30.2357,3131.0
30.2691,3133.0
30.3025,3211.0
30.3359,3172.0
30.3693,3040.0
30.4028,3060.0
30.4362,3071.0
30.4696,3135.0
30.503,3030.0
30.5365,3107.0
30.5699,3136.0
30.6033,3073.0
30.6367,3098.0
30.6701,3022.0
30.7036,3117.0
30.737,3050.0
30.7704,3007.0
30.8038,3032.0
30.8373,3082.0
30.8707,3025.0
30.9041,3079.0
30.9375,3073.0
30.9709,3119.0
31.0044,3044.0
31.0378,3020.0
31.0712,3028.0
31.1046,3060.0
31.1381,2907.0
31.1715,3100.0
31.2049,3112.0
31.2383,3074.0
31.2718,3064.0
31.3052,3001.0
31.3386,3114.0
31.372,3145.0
31.4054,3260.0
31.4389,3127.0
31.4723,3245.0
31.5057,3232.0
31.5391,3363.0
31.5726,3160.0
31.606,3138.0
31.6394,3055.0
31.6728,3112.0
31.7062,2989.0
31.7397,3008.0
31.7731,3054.0
31.8065,2988.0
31.8399,3012.0
31.8734,2975.0
31.9068,3009.0
31.9402,3025.0
31.9736,3071.0
32.007,2970.0
32.0405,2995.0
32.0739,2902.0
32.1073,3027.0
32.1407,2995.0
32.1742,2911.0
32.2076,2913.0
32.241,2958.0
32.2744,3034.0
32.3078,2981.0
32.3413,3035.0
32.3747,2988.0
32.4081,3183.0
32.4415,3162.0
32.475,3273.0
32.5084,3429.0
32.5418,3814.0
32.5752,4410.0
32.6087,4971.0
32.6421,4794.0
32.6755,4448.0
32.7089,4276.0
32.7423,3777.0
32.7758,3353.0
32.8092,3308.0
32.8426,3043.0
32.876,3018.0
32.9095,3098.0
32.9429,2996.0
32.9763,2928.0
33.0097,2957.0
33.0431,2950.0
33.0766,2935.0
33.11,2944.0
33.1434,2930.0
33.1768,2965.0
33.2103,2919.0
33.2437,2951.0
33.2771,2934.0
33.3105,2845.0
33.3439,2929.0
33.3774,2904.0
33.4108,2940.0
33.4442,2816.0
33.4776,3036.0
33.5111,2881.0
33.5445,2883.0
33.5779,2934.0
33.6113,2896.0
33.6448,3025.0
33.6782,3005.0
33.7116,2971.0
33.745,3075.0
33.7784,3018.0
33.8119,3180.0
33.8453,3253.0
33.8787,3523.0
33.9121,3985.0
33.9456,4669.0
33.979,5534.0
34.0124,5373.0
34.0458,4625.0
34.0792,4413.0
34.1127,3876.0
34.1461,3315.0
34.1795,3124.0
34.2129,3097.0
34.2464,2996.0
34.2798,2992.0
34.3132,3057.0
34.3466,2797.0
34.38,2888.0
34.4135,2876.0
34.4469,2851.0
34.4803,2854.0
34.5137,2753.0
34.5472,2758.0
34.5806,2815.0
34.614,2884.0
34.6474,2704.0
34.6808,2836.0
34.7143,2866.0
34.7477,2816.0
34.7811,2768.0
34.8145,2919.0
34.848,2932.0
34.8814,2871.0
34.9148,2972.0
34.9482,3023.0
34.9817,3161.0
35.0151,3253.0
35.0485,3456.0
35.0819,3716.0
35.1153,4004.0
35.1488,3897.0
35.1822,3612.0
35.2156,3445.0
35.249,3331.0
35.2825,3026.0
35.3159,2930.0
35.3493,2959.0
35.3827,2966.0
35.4161,2857.0
35.4496,2900.0
35.483,2938.0
35.5164,2867.0
35.5498,2886.0
35.5833,2923.0
35.6167,2993.0
35.6501,3057.0
35.6835,3045.0
35.7169,3009.0
35.7504,2995.0
35.7838,2915.0
35.8172,2804.0
35.8506,2847.0
35.8841,2767.0
35.9175,2766.0
35.9509,2759.0
35.9843,2793.0
36.0178,2805.0
36.0512,2755.0
36.0846,2757.0
36.118,2872.0
36.1514,2883.0
36.1849,2848.0
36.2183,2933.0
36.2517,2884.0
36.2851,3004.0
36.3186,2942.0
36.352,2908.0
36.3854,2799.0
36.4188,2855.0
36.4522,2847.0
36.4857,2785.0
36.5191,2820.0
36.5525,2834.0
36.5859,2853.0
36.6194,2798.0
36.6528,2757.0
36.6862,2928.0
36.7196,2810.0
36.753,2834.0
36.7865,2815.0
36.8199,2728.0
36.8533,2831.0
36.8867,2797.0
36.9202,2756.0
36.9536,2705.0
36.987,2725.0
37.0204,2759.0
37.0538,2661.0
37.0873,2665.0
37.1207,2721.0
37.1541,2793.0
37.1875,2662.0
37.221,2746.0
37.2544,2666.0
37.2878,2617.0
37.3212,2734.0
37.3547,2617.0
37.3881,2810.0
37.4215,2621.0
37.4549,2698.0
37.4883,2616.0
37.5218,2817.0
37.5552,2594.0
37.5886,2657.0
37.622,2706.0
37.6555,2594.0
37.6889,2801.0
37.7223,2663.0
37.7557,2632.0
37.7891,2716.0
37.8226,2718.0
37.856,2633.0
37.8894,2728.0
37.9228,2712.0
37.9563,2682.0
37.9897,2629.0
38.0231,2600.0
38.0565,2631.0
38.0899,2728.0
38.1234,2728.0
38.1568,2742.0
38.1902,2737.0
38.2236,2629.0
38.2571,2651.0
38.2905,2630.0
38.3239,2691.0
38.3573,2600.0
38.3908,2721.0
38.4242,2665.0
38.4576,2609.0
38.491,2647.0
38.5244,2656.0
38.5579,2555.0
38.5913,2585.0
38.6247,2622.0
38.6581,2718.0
38.6916,2712.0
38.725,2707.0
38.7584,2635.0
38.7918,2622.0
38.8252,2695.0
38.8587,2798.0
38.8921,2679.0
38.9255,2621.0
38.9589,2665.0
38.9924,2685.0
39.0258,2638.0
39.0592,2653.0
39.0926,2626.0
39.126,2565.0
39.1595,2618.0
39.1929,2592.0
39.2263,2600.0
39.2597,2712.0
39.2932,2640.0
39.3266,2636.0
39.36,2583.0
39.3934,2521.0
39.4269,2549.0
39.4603,2585.0
39.4937,2584.0
39.5271,2683.0
39.5605,2713.0
39.594,2740.0
39.6274,2702.0
39.6608,2864.0
39.6942,2932.0
39.7277,3011.0
39.7611,3210.0
39.7945,3638.0
39.8279,4042.0
39.8613,4747.0
39.8948,4779.0
39.9282,4277.0
39.9616,3994.0
39.995,3907.0
40.0285,3430.0
40.0619,3049.0
40.0953,2989.0
40.1287,2817.0
40.1621,2793.0
40.1956,2797.0
40.229,2798.0
40.2624,2744.0
40.2958,2792.0
40.3293,2715.0
40.3627,2662.0
40.3961,2688.0
40.4295,2602.0
40.4629,2731.0
40.4964,2582.0
40.5298,2760.0
40.5632,2688.0
40.5966,2773.0
40.6301,2772.0
40.6635,2716.0
40.6969,2790.0
40.7303,2840.0
40.7638,2891.0
40.7972,2905.0
40.8306,3005.0
40.864,2960.0
40.8974,3096.0
40.9309,3049.0
40.9643,3081.0
40.9977,3195.0
41.0311,3389.0
41.0646,3614.0
41.098,3878.0
41.1314,3894.0
41.1648,3636.0
41.1982,3723.0
41.2317,3591.0
41.2651,3520.0
41.2985,3573.0
41.3319,3845.0
41.3654,4149.0
41.3988,4264.0
41.4322,3870.0
41.4656,3615.0
41.499,3569.0
41.5325,3329.0
41.5659,2983.0
41.5993,2912.0
41.6327,2833.0
41.6662,2800.0
41.6996,2677.0
41.733,2708.0
41.7664,2605.0
41.7999,2631.0
41.8333,2648.0
41.8667,2566.0
41.9001,2638.0
41.9335,2668.0
41.967,2752.0
42.0004,2689.0
42.0338,2652.0
42.0672,2772.0
42.1007,2797.0
42.1341,2995.0
42.1675,3060.0
42.2009,3073.0
42.2343,3008.0
42.2678,2838.0
42.3012,2831.0
42.3346,2691.0
42.368,2755.0
42.4015,2770.0
42.4349,2597.0
42.4683,2597.0
42.5017,2551.0
42.5351,2610.0
42.5686,2682.0
42.602,2680.0
42.6354,2590.0
42.6688,2631.0
42.7023,2643.0
42.7357,2578.0
42.7691,2550.0
42.8025,2652.0
42.8359,2478.0
42.8694,2456.0
42.9028,2595.0
42.9362,2518.0
42.9696,2605.0
43.0031,2719.0
43.0365,2528.0
43.0699,2604.0
43.1033,2561.0
43.1368,2552.0
43.1702,2624.0
43.2036,2530.0
43.237,2575.0
43.2704,2574.0
43.3039,2674.0
43.3373,2566.0
43.3707,2592.0
43.4041,2604.0
43.4376,2603.0
43.471,2698.0
43.5044,2633.0
43.5378,2633.0
43.5712,2723.0
43.6047,2632.0
43.6381,2730.0
43.6715,2757.0
43.7049,2895.0
43.7384,2993.0
43.7718,2947.0
43.8052,2888.0
43.8386,2793.0
43.872,2704.0
43.9055,2741.0
43.9389,2461.0
43.9723,2611.0
44.0057,2569.0
44.0392,2602.0
44.0726,2530.0
44.106,2510.0
44.1394,2589.0
44.1729,2521.0
44.2063,2469.0
44.2397,2552.0
44.2731,2543.0
44.3065,2550.0
44.34,2678.0
44.3734,2537.0
44.4068,2595.0
44.4402,2545.0
44.4737,2505.0
44.5071,2590.0
44.5405,2543.0
44.5739,2617.0
44.6073,2494.0
44.6408,2553.0
44.6742,2462.0
44.7076,2581.0
44.741,2518.0
44.7745,2630.0
44.8079,2431.0
44.8413,2580.0
44.8747,2557.0
44.9081,2432.0
44.9416,2505.0
44.975,2553.0
45.0084,2585.0
45.0418,2593.0
45.0753,2447.0
45.1087,2463.0
45.1421,2579.0
45.1755,2528.0
45.2089,2524.0
45.2424,2477.0
45.2758,2594.0
45.3092,2610.0
45.3426,2410.0
45.3761,2447.0
45.4095,2473.0
45.4429,2471.0
45.4763,2552.0
45.5098,2486.0
45.5432,2619.0
45.5766,2562.0
45.61,2449.0
45.6434,2540.0
45.6769,2547.0
45.7103,2518.0
45.7437,2485.0
45.7771,2492.0
45.8106,2603.0
45.844,2477.0
45.8774,2510.0
45.9108,2573.0
45.9442,2463.0
45.9777,2463.0
46.0111,2459.0
46.0445,2569.0
46.0779,2508.0
46.1114,2532.0
46.1448,2487.0
46.1782,2478.0
46.2116,2492.0
46.245,2564.0
46.2785,2465.0
46.3119,2455.0
46.3453,2546.0
46.3787,2422.0
46.4122,2475.0
46.4456,2509.0
46.479,2557.0
46.5124,2472.0
46.5459,2626.0
46.5793,2476.0
46.6127,2476.0
46.6461,2437.0
46.6795,2527.0
46.713,2454.0
46.7464,2449.0
46.7798,2379.0
46.8132,2451.0
46.8467,2469.0
46.8801,2541.0
46.9135,2554.0
46.9469,2487.0
46.9803,2492.0
47.0138,2548.0
47.0472,2594.0
47.0806,2540.0
47.114,2503.0
47.1475,2499.0
47.1809,2516.0
47.2143,2452.0
47.2477,2464.0
47.2811,2577.0
47.3146,2575.0
47.348,2521.0
47.3814,2500.0
47.4148,2402.0
47.4483,2510.0
47.4817,2577.0
47.5151,2439.0
47.5485,2508.0
47.5819,2567.0
47.6154,2592.0
47.6488,2593.0
47.6822,2462.0
47.7156,2566.0
47.7491,2534.0
47.7825,2473.0
47.8159,2496.0
47.8493,2479.0
47.8828,2584.0
47.9162,2532.0
47.9496,2493.0
47.983,2619.0
48.0164,2543.0
48.0499,2585.0
48.0833,2509.0
48.1167,2521.0
48.1501,2499.0
48.1836,2553.0
48.217,2519.0
48.2504,2601.0
48.2838,2548.0
48.3172,2572.0
48.3507,2636.0
48.3841,2489.0
48.4175,2555.0
48.4509,2584.0
48.4844,2556.0
48.5178,2579.0
48.5512,2556.0
48.5846,2550.0
48.618,2660.0
48.6515,2663.0
48.6849,2632.0
48.7183,2624.0
48.7517,2656.0
48.7852,2658.0
48.8186,2732.0
48.852,2881.0
48.8854,2996.0
48.9189,3167.0
48.9523,3453.0
48.9857,3840.0
49.0191,4404.0
49.0525,5249.0
49.086,5368.0
49.1194,4648.0
49.1528,4196.0
49.1862,4349.0
49.2197,4262.0
49.2531,3420.0
49.2865,3140.0
49.3199,2903.0
49.3533,2911.0
49.3868,2679.0
49.4202,2709.0
49.4536,2655.0
49.487,2503.0
49.5205,2631.0
49.5539,2624.0
49.5873,2536.0
49.6207,2631.0
49.6541,2592.0
49.6876,2535.0
49.721,2585.0
49.7544,2545.0
49.7878,2603.0
49.8213,2600.0
49.8547,2617.0
49.8881,2570.0
49.9215,2610.0
49.9549,2646.0
49.9884,2676.0
50.0218,2662.0
50.0552,2728.0
50.0886,2822.0
50.1221,2904.0
50.1555,3062.0
50.1889,3295.0
50.2223,3654.0
50.2558,3996.0
50.2892,3562.0
50.3226,3252.0
50.356,3162.0
50.3894,3281.0
50.4229,2995.0
50.4563,2777.0
50.4897,2652.0
50.5231,2626.0
50.5566,2565.0
50.59,2605.0
50.6234,2567.0
50.6568,2528.0
50.6902,2547.0
50.7237,2503.0
50.7571,2526.0
50.7905,2494.0
50.8239,2547.0
50.8574,2550.0
50.8908,2564.0
50.9242,2451.0
50.9576,2515.0
50.991,2520.0
51.0245,2421.0
51.0579,2567.0
51.0913,2475.0
51.1247,2469.0
51.1582,2603.0
51.1916,2499.0
51.225,2397.0
51.2584,2518.0
51.2919,2471.0
51.3253,2483.0
51.3587,2601.0
51.3921,2495.0
51.4255,2564.0
51.459,2558.0
51.4924,2457.0
51.5258,2510.0
51.5592,2495.0
51.5927,2593.0
51.6261,2431.0
51.6595,2463.0
51.6929,2599.0
51.7263,2463.0
51.7598,2502.0
51.7932,2523.0
51.8266,2562.0
51.86,2506.0
51.8935,2455.0
51.9269,2592.0
51.9603,2562.0
51.9937,2616.0
52.0271,2586.0
52.0606,2626.0
52.094,2627.0
52.1274,2665.0
52.1608,2642.0
52.1943,2543.0
52.2277,2593.0
52.2611,2700.0
52.2945,2694.0
52.3279,2767.0
52.3614,2684.0
52.3948,2793.0
52.4282,2889.0
52.4616,2791.0
52.4951,2847.0
52.5285,2845.0
52.5619,2954.0
52.5953,2892.0
52.6288,2919.0
52.6622,2873.0
52.6956,2865.0
52.729,2834.0
52.7624,2842.0
52.7959,2866.0
52.8293,2802.0
52.8627,2835.0
52.8961,2829.0
52.9296,2790.0
52.963,2835.0
52.9964,2897.0
53.0298,2750.0
53.0632,2886.0
53.0967,3028.0
53.1301,3180.0
53.1635,3589.0
53.1969,4191.0
53.2304,4592.0
53.2638,4114.0
53.2972,3643.0
53.3306,3681.0
53.364,3747.0
53.3975,3426.0
53.4309,3136.0
53.4643,2881.0
53.4977,2844.0
53.5312,2802.0
53.5646,2697.0
53.598,2651.0
53.6314,2638.0
53.6649,2572.0
53.6983,2592.0
53.7317,2516.0
53.7651,2580.0
53.7985,2597.0
53.832,2622.0
53.8654,2677.0
53.8988,2572.0
53.9322,2500.0
53.9657,2550.0
53.9991,2522.0
54.0325,2601.0
54.0659,2505.0
54.0993,2570.0
54.1328,2613.0
54.1662,2636.0
54.1996,2584.0
54.233,2548.0
54.2665,2618.0
54.2999,2626.0
54.3333,2659.0
54.3667,2518.0
54.4001,2528.0
54.4336,2575.0
54.467,2615.0
54.5004,2585.0
54.5338,2729.0
54.5673,2575.0
54.6007,2841.0
54.6341,2847.0
54.6675,2866.0
54.701,3151.0
54.7344,3418.0
54.7678,3988.0
54.8012,4749.0
54.8346,4713.0
54.8681,3985.0
54.9015,3697.0
54.9349,3757.0
54.9683,3815.0
55.0018,3549.0
55.0352,3132.0
55.0686,3004.0
55.102,2753.0
55.1354,2777.0
55.1689,2693.0
55.2023,2669.0
55.2357,2622.0
55.2691,2603.0
55.3026,2665.0
55.336,2630.0
55.3694,2732.0
55.4028,2713.0
55.4362,2854.0
55.4697,2841.0
55.5031,2918.0
55.5365,3122.0
55.5699,3334.0
55.6034,3881.0
55.6368,4150.0
55.6702,4103.0
55.7036,3621.0
55.737,3472.0
55.7705,3412.0
55.8039,3646.0
55.8373,3265.0
55.8707,3024.0
55.9042,2897.0
55.9376,2999.0
55.971,2748.0
56.0044,2748.0
56.0379,2783.0
56.0713,2815.0
56.1047,2776.0
56.1381,2714.0
56.1715,2779.0
56.205,2904.0
56.2384,2907.0
56.2718,3112.0
56.3052,3013.0
56.3387,3085.0
56.3721,3179.0
56.4055,3239.0
56.4389,2916.0
56.4723,2963.0
56.5058,2939.0
56.5392,2825.0
56.5726,2870.0
56.606,2710.0
56.6395,2669.0
56.6729,2644.0
56.7063,2636.0
56.7397,2679.0
56.7731,2507.0
56.8066,2688.0
56.84,2671.0
56.8734,2571.0
56.9068,2697.0
56.9403,2718.0
56.9737,2791.0
57.0071,2840.0
57.0405,2790.0
57.074,3044.0
57.1074,3151.0
57.1408,3242.0
57.1742,3452.0
57.2076,3469.0
57.2411,3321.0
57.2745,3342.0
57.3079,3423.0
57.3413,3486.0
57.3748,3536.0
57.4082,3338.0
57.4416,3034.0
57.475,3062.0
57.5084,2996.0
57.5419,2873.0
57.5753,2719.0
57.6087,2708.0
57.6421,2683.0
57.6756,2635.0
57.709,2609.0
57.7424,2614.0
57.7758,2538.0
57.8092,2665.0
57.8427,2551.0
57.8761,2527.0
57.9095,2444.0
57.9429,2589.0
57.9764,2536.0
58.0098,2471.0
58.0432,2558.0
58.0766,2559.0
58.11,2648.0
58.1435,2549.0
58.1769,2646.0
58.2103,2640.0
58.2437,2826.0
58.2772,2907.0
58.3106,3035.0
58.344,2877.0
58.3774,2902.0
58.4109,2836.0
58.4443,2803.0
58.4777,2841.0
58.5111,2759.0
58.5445,2725.0
58.578,2638.0
58.6114,2643.0
58.6448,2498.0
58.6782,2598.0
58.7117,2522.0
58.7451,2532.0
58.7785,2649.0
58.8119,2479.0
58.8453,2465.0
58.8788,2464.0
58.9122,2520.0
58.9456,2526.0
58.979,2500.0
59.0125,2503.0
59.0459,2608.0
59.0793,2606.0
59.1127,2543.0
59.1461,2571.0
59.1796,2541.0
59.213,2523.0
59.2464,2483.0
59.2798,2530.0
59.3133,2604.0
59.3467,2519.0
59.3801,2571.0
59.4135,2612.0
59.447,2559.0
59.4804,2655.0
59.5138,2556.0
59.5472,2425.0
59.5806,2593.0
59.6141,2550.0
59.6475,2714.0
59.6809,2754.0
59.7143,2784.0
59.7478,2688.0
59.7812,2683.0
59.8146,2630.0
59.848,2637.0
59.8814,2638.0
59.9149,2631.0
59.9483,2664.0
59.9817,2581.0
60.0151,2567.0
60.0486,2457.0
60.082,2656.0
60.1154,2622.0
60.1488,2561.0
60.1822,2634.0
60.2157,2485.0
60.2491,2595.0
60.2825,2584.0
60.3159,2642.0
60.3494,2555.0
60.3828,2657.0
60.4162,2589.0
60.4496,2762.0
60.483,2732.0
60.5165,2868.0
60.5499,2927.0
60.5833,2841.0
60.6167,2849.0
60.6502,2757.0
60.6836,2685.0
60.717,2736.0
60.7504,2763.0
60.7839,2633.0
60.8173,2631.0
60.8507,2573.0
60.8841,2594.0
60.9175,2620.0
60.951,2578.0
60.9844,2555.0
61.0178,2579.0
61.0512,2559.0
61.0847,2501.0
61.1181,2509.0
61.1515,2575.0
61.1849,2465.0
61.2183,2635.0
61.2518,2571.0
61.2852,2586.0
61.3186,2553.0
61.352,2521.0
61.3855,2534.0
61.4189,2482.0
61.4523,2600.0
61.4857,2541.0
61.5191,2565.0
61.5526,2549.0
61.586,2571.0
61.6194,2490.0
61.6528,2479.0
61.6863,2561.0
61.7197,2495.0
61.7531,2583.0
61.7865,2600.0
61.82,2545.0
61.8534,2522.0
61.8868,2571.0
61.9202,2571.0
61.9536,2563.0
61.9871,2632.0
62.0205,2573.0
62.0539,2490.0
62.0873,2486.0
62.1208,2563.0
62.1542,2598.0
62.1876,2656.0
62.221,2685.0
62.2544,2614.0
62.2879,2685.0
62.3213,2678.0
62.3547,2647.0
62.3881,2638.0
62.4216,2658.0
62.455,2684.0
62.4884,2786.0
62.5218,2931.0
62.5552,2893.0
62.5887,3014.0
62.6221,3182.0
62.6555,3210.0
62.6889,3206.0
62.7224,2999.0
62.7558,3082.0
62.7892,3070.0
62.8226,3104.0
62.856,3082.0
62.8895,3124.0
62.9229,3192.0
62.9563,3264.0
62.9897,3365.0
63.0232,3125.0
63.0566,3131.0
63.09,3196.0
63.1234,3232.0
63.1569,3252.0
63.1903,3007.0
63.2237,2833.0
63.2571,2882.0
63.2905,2891.0
63.324,2848.0
63.3574,2778.0
63.3908,2739.0
63.4242,2822.0
63.4577,2844.0
63.4911,2885.0
63.5245,3002.0
63.5579,2980.0
63.5913,3085.0
63.6248,3276.0
63.6582,3343.0
63.6916,3360.0
63.725,3214.0
63.7585,3115.0
63.7919,3142.0
63.8253,2973.0
63.8587,2909.0
63.8921,2939.0
63.9256,2781.0
63.959,2694.0
63.9924,2631.0
64.0258,2720.0
64.0593,2527.0
64.0927,2675.0
64.1261,2509.0
64.1595,2537.0
64.193,2561.0
64.2264,2626.0
64.2598,2622.0
64.2932,2541.0
64.3266,2520.0
64.3601,2552.0
64.3935,2590.0
64.4269,2574.0
64.4603,2452.0
64.4938,2510.0
64.5272,2554.0
64.5606,2498.0
64.594,2566.0
64.6274,2532.0
64.6609,2508.0
64.6943,2487.0
64.7277,2673.0
64.7611,2664.0
64.7946,2589.0
64.828,2567.0
64.8614,2395.0
64.8948,2577.0
64.9282,2431.0
64.9617,2618.0
64.9951,2565.0
65.0285,2587.0
65.0619,2633.0
65.0954,2583.0
65.1288,2627.0
65.1622,2543.0
65.1956,2525.0
65.229,2550.0
65.2625,2538.0
65.2959,2471.0
65.3293,2577.0
65.3627,2537.0
65.3962,2473.0
65.4296,2596.0
65.463,2621.0
65.4964,2485.0
65.5299,2475.0
65.5633,2616.0
65.5967,2575.0
65.6301,2521.0
65.6635,2602.0
65.697,2554.0
65.7304,2526.0
65.7638,2571.0
65.7972,2572.0
65.8307,2523.0
65.8641,2531.0
65.8975,2520.0
65.9309,2574.0
65.9643,2578.0
65.9978,2594.0
66.0312,2659.0
66.0646,2603.0
66.098,2589.0
66.1315,2583.0
66.1649,2691.0
66.1983,2579.0
66.2317,2696.0
66.2651,2613.0
66.2986,2656.0
66.332,2567.0
66.3654,2501.0
66.3988,2523.0
66.4323,2634.0
66.4657,2620.0
66.4991,2545.0
66.5325,2619.0
66.566,2462.0
66.5994,2551.0
66.6328,2569.0
66.6662,2526.0
66.6996,2525.0
66.7331,2538.0
66.7665,2463.0
66.7999,2553.0
66.8333,2478.0
66.8668,2498.0
66.9002,2463.0
66.9336,2555.0
66.967,2527.0
67.0004,2636.0
67.0339,2582.0
67.0673,2566.0
67.1007,2575.0
67.1341,2495.0
67.1676,2540.0
67.201,2538.0
67.2344,2619.0
67.2678,2508.0
67.3012,2493.0
67.3347,2505.0
67.3681,2484.0
67.4015,2421.0
67.4349,2549.0
67.4684,2531.0
67.5018,2550.0
67.5352,2626.0
67.5686,2521.0
67.602,2418.0
67.6355,2643.0
67.6689,2503.0
67.7023,2557.0
67.7357,2456.0
67.7692,2558.0
67.8026,2545.0
67.836,2572.0
67.8694,2554.0
67.9029,2530.0
67.9363,2452.0
67.9697,2500.0
68.0031,2580.0
68.0365,2508.0
68.07,2550.0
68.1034,2624.0
68.1368,2516.0
68.1702,2603.0
68.2037,2595.0
68.2371,2667.0
68.2705,2774.0
68.3039,2756.0
68.3373,2668.0
68.3708,2678.0
68.4042,2678.0
68.4376,2674.0
68.471,2736.0
68.5045,2596.0
68.5379,2621.0
68.5713,2527.0
68.6047,2611.0
68.6381,2612.0
68.6716,2474.0
68.705,2507.0
68.7384,2502.0
68.7718,2557.0
68.8053,2518.0
68.8387,2640.0
68.8721,2601.0
68.9055,2524.0
68.939,2435.0
68.9724,2537.0
69.0058,2635.0
69.0392,2491.0
69.0726,2494.0
69.1061,2486.0
69.1395,2555.0
69.1729,2540.0
69.2063,2548.0
69.2398,2596.0
69.2732,2461.0
69.3066,2498.0
69.34,2593.0
69.3734,2537.0
69.4069,2534.0
69.4403,2456.0
69.4737,2589.0
69.5071,2522.0
69.5406,2511.0
69.574,2487.0
69.6074,2572.0
69.6408,2540.0
69.6742,2512.0
69.7077,2521.0
69.7411,2465.0
69.7745,2561.0
69.8079,2565.0
69.8414,2579.0
69.8748,2587.0
69.9082,2531.0
69.9416,2618.0
69.975,2630.0
69.9918,2521.0