File: herald_visualization/Delia_Scripts/CoF3/CoF3_1to1_KS6Lgraphite/RR_ASC_0mins_CoF3/Differences_240827-CoF3_1to1_KS6Lgraphite-0min_milled-20-70deg_40min.csv
2Theta,Intensity
20.0084,0
20.0424,-54.1046
20.0764,-11.4134
20.1104,10.8747
20.1444,-51.8593
20.1784,36.7122
20.2124,-136.788
20.2464,31.5809
20.2804,-83.9928
20.3144,-1.85873
20.3484,44.964
20.3824,-6.8788
20.4164,8.54219
20.4504,39.7306
20.4844,-97.1356
20.5184,134.243
20.5524,57.9903
20.5864,113.534
20.6204,1.67079
20.6544,14.0052
20.6884,37.8968
20.7224,-12.2216
20.7564,-3.13613
20.7904,175.643
20.8244,152.885
20.8584,51.4424
20.8924,36.9221
20.9264,-21.4063
20.9604,-60.6282
20.9944,83.5702
21.0284,142.358
21.0624,-100.639
21.0964,65.3464
21.1304,-60.9509
21.1644,37.4897
21.1984,-9.00227
21.2324,42.1825
21.2664,38.3728
21.3004,59.5792
21.3344,-69.6936
21.3684,-5.02764
21.4024,-61.9489
21.4364,19.2786
21.4704,39.3262
21.5044,-179.178
21.5384,-72.1024
21.5724,151.336
21.6064,41.6
21.6404,-83.4053
21.6744,54.5976
21.7084,-20.1879
21.7424,21.6066
21.7764,-55.9061
21.8104,133.19
21.8444,-62.8516
21.8784,-6.59009
21.9124,-50.5581
21.9464,-8.56094
21.9804,226.209
22.0144,119.821
22.0484,140.477
22.0824,-29.1821
22.1164,38.8159
22.1504,28.2277
22.1844,17.881
22.2184,-41.139
22.2524,-34.4895
22.2864,-128.669
22.3204,45.4565
22.3544,56.813
22.3884,-97.209
22.4224,-37.2841
22.4564,-22.0079
22.4904,35.5106
22.5244,-70.9715
22.5584,75.2738
22.5924,-68.9429
22.6264,-16.4403
22.6604,-27.168
22.6944,-87.7706
22.7284,-231.723
22.7624,23.1364
22.7964,36.7314
22.8304,-101.462
22.8644,-87.7513
22.8984,86.9178
22.9324,5.88749
22.9664,-9.54913
23.0004,48.9444
23.0344,-135.339
23.0684,-225.951
23.1024,-44.2175
23.1364,-9.75419
23.1704,-17.8307
23.2044,-73.5606
23.2384,-82.013
23.2724,-217.322
23.3064,-119.507
23.3404,-88.7177
23.3744,-112.878
23.4084,-198.06
23.4424,-173.921
23.4764,-94.5878
23.5104,-121.709
23.5444,-52.2935
23.5784,-177
23.6124,-92.3179
23.6464,-44.9482
23.6804,69.6843
23.7144,-48.8422
23.7484,-143.833
23.7824,-96.9585
23.8164,-35.7328
23.8504,-66.0272
23.8844,-35.9978
23.9184,12.8343
23.9524,-87.0602
23.9864,-118.993
24.0204,11.0673
24.0544,-98.3385
24.0884,-86.8812
24.1224,43.7277
24.1564,107.374
24.1904,-46.4459
24.2244,156.58
24.2584,414.649
24.2924,265.2
24.3264,203.176
24.3604,-141.343
24.3944,-377.306
24.4284,-529.206
24.4624,475.067
24.4964,1090.46
24.5304,723.197
24.5644,50.5159
24.5984,-698.64
24.6324,-775.212
24.6664,-442.644
24.7004,-330.761
24.7344,-212.54
24.7684,-112.86
24.8024,-31.9712
24.8364,-24.9264
24.8704,-73.0054
24.9044,-179.461
24.9384,-288.518
24.9724,-162.689
25.0064,-242.203
25.0404,-149.719
25.0744,-257.102
25.1084,-125.778
25.1424,-131.834
25.1764,-185.163
25.2104,-95.3228
25.2444,-79.9697
25.2784,-57.6493
25.3124,-173.019
25.3464,-204.542
25.3804,-195.726
25.4144,-56.1108
25.4484,-1.00417
25.4824,-125.437
25.5164,-38.4494
25.5504,77.0298
25.5844,4.85062
25.6184,58.9489
25.6524,5.58254
25.6864,18.5727
25.7204,-10.6791
25.7544,-119.725
25.7884,191.213
25.8224,8.34368
25.8564,114.268
25.8904,49.3804
25.9244,37.0724
25.9584,-37.7147
25.9924,108.529
26.0264,183.208
26.0604,119.879
26.0944,43.3482
26.1284,-64.956
26.1624,88.8891
26.1964,-49.9881
26.2304,78.2828
26.2644,10.1051
26.2984,4.49102
26.3324,-32.1472
26.3664,31.4984
26.4004,-162.989
26.4344,-21.427
26.4684,-30.5439
26.5024,-83.0722
26.5364,-18.3958
26.5704,147.025
26.6044,165.553
26.6384,-54.9797
26.6724,-72.7124
26.7064,-199.853
26.7404,-77.5094
26.7744,-114.081
26.8084,165.742
26.8424,-6.59267
26.8764,106.448
26.9104,-40.3348
26.9444,147.048
26.9784,37.4851
27.0124,129.315
27.0464,-26.5412
27.0804,121.611
27.1144,-30.4527
27.1484,84.3409
27.1824,44.7636
27.2164,101.58
27.2504,109.089
27.2844,-68.3988
27.3184,90.9001
27.3524,69.948
27.3864,81.7633
27.4204,14.8019
27.4544,22.7378
27.4884,-7.75837
27.5224,73.4185
27.5564,153.708
27.5904,111.526
27.6244,-130.624
27.6584,66.9215
27.6924,-105.364
27.7264,119.12
27.7604,-34.1225
27.7944,158.373
27.8284,92.7483
27.8624,10.9742
27.8964,129.745
27.9304,-65.6825
27.9644,-13.9746
27.9984,117.454
28.0324,-29.6702
28.0664,-4.11893
28.1004,11.8905
28.1344,34.7326
28.1684,187.854
28.2024,8.59027
28.2364,62.1645
28.2704,99.2829
28.3044,63.8309
28.3384,-76.5788
28.3724,-2.56153
28.4064,104.567
28.4404,80.8252
28.4744,140.208
28.5084,100.483
28.5424,118.296
28.5764,-3.42869
28.6104,159.77
28.6444,277.991
28.6784,-64.4277
28.7124,82.0732
28.7464,202.562
28.7804,18.6032
28.8144,36.3861
28.8484,185.805
28.8824,125.473
28.9164,84.3075
28.9504,110.798
28.9844,22.3203
29.0184,-50.1818
29.0524,42.7834
29.0864,18.0134
29.1204,183.473
29.1544,17.5763
29.1884,88.2982
29.2224,119.842
29.2564,21.9663
29.2904,64.5188
29.3244,60.2357
29.3584,125.497
29.3924,-21.5121
29.4264,-43.3808
29.4604,63.106
29.4944,-14.0559
29.5284,46.5155
29.5624,32.6191
29.5964,91.6498
29.6304,99.5872
29.6644,-102.087
29.6984,-1.50346
29.7324,45.8883
29.7664,-28.2112
29.8004,-6.34008
29.8344,93.33
29.8684,157.929
29.9024,-10.3308
29.9364,147.614
29.9704,72.871
30.0044,165.226
30.0384,45.6217
30.0724,43.4538
30.1064,74.3398
30.1404,191.133
30.1744,18.5923
30.2084,55.6963
30.2424,-2.207
30.2764,41.7711
30.3104,69.8238
30.3444,48.0766
30.3784,-15.1228
30.4124,79.7444
30.4464,26.4897
30.4804,60.8503
30.5144,5.42933
30.5484,25.2
30.5824,132.713
30.6164,160.396
30.6504,-38.3477
30.6844,-33.8876
30.7184,15.1929
30.7524,90.9529
30.7864,-92.5824
30.8204,40.8848
30.8544,133.967
30.8884,116.779
30.9224,95.3999
30.9564,72.8992
30.9904,35.8916
31.0244,59.6901
31.0584,129.02
31.0924,15.8693
31.1264,80.2114
31.1604,50.9701
31.1944,42.5952
31.2284,124.257
31.2624,116.752
31.2964,-28.1901
31.3304,-66.5209
31.3644,52.2651
31.3984,73.0513
31.4324,85.6252
31.4664,146.565
31.5004,1.84529
31.5344,83.9001
31.5684,186.56
31.6024,82.1716
31.6364,-24.1764
31.6704,22.0923
31.7044,85.8016
31.7384,76.7685
31.7724,114.721
31.8064,78.2098
31.8404,-57.3366
31.8744,26.2192
31.9084,189.905
31.9424,3.29477
31.9764,63.1355
32.0104,47.8697
32.0444,79.409
32.0784,79.1273
32.1124,30.7078
32.1464,-76.9828
32.1804,11.8274
32.2144,61.2132
32.2484,53.437
32.2824,-4.63897
32.3164,120.124
32.3504,54.9232
32.3844,-22.4321
32.4184,30.7952
32.4524,-19.6652
32.4864,33.4107
32.5204,49.8791
32.5544,82.7765
32.5884,136.832
32.6224,161.599
32.6564,199.655
32.6904,46.0362
32.7244,193.896
32.7584,174.112
32.7924,-74.1328
32.8264,38.903
32.8604,33.2969
32.8944,172.125
32.9284,-76.0427
32.9624,135.818
32.9964,174.387
33.0304,6.6191
33.0644,31.3752
33.0984,50.7762
33.1324,-63.6104
33.1664,100.343
33.2004,155.622
33.2344,113.023
33.2684,130.76
33.3024,28.2177
33.3364,27.011
33.3704,38.3933
33.4044,7.16224
33.4384,11.7405
33.4724,56.1473
33.5064,60.9808
33.5404,-65.7453
33.5744,-18.6046
33.6084,-28.0273
33.6424,189.938
33.6764,146.585
33.7104,84.6747
33.7444,7.24122
33.7784,135.797
33.8124,79.0753
33.8464,86.5743
33.8804,193.017
33.9144,232.449
33.9484,42.7151
33.9824,-82.5346
34.0164,-190.514
34.0504,-179.673
34.0844,-84.152
34.1184,60.9608
34.1524,157.309
34.1864,176.588
34.2204,60.993
34.2544,148.692
34.2884,214.637
34.3224,69.5048
34.3564,-15.1701
34.3904,83.7755
34.4244,204.699
34.4584,74.4759
34.4924,-27.8112
34.5264,114.431
34.5604,134.063
34.5944,68.1764
34.6284,230.881
34.6624,92.4914
34.6964,10.5374
34.7304,-20.9961
34.7644,122.97
34.7984,-24.8899
34.8324,-32.1504
34.8664,-80.6868
34.9004,36.9252
34.9344,2.78811
34.9684,58.0492
35.0024,52.7862
35.0364,-6.57501
35.0704,108.848
35.1044,23.4079
35.1384,66.2555
35.1724,42.1723
35.2064,62.2232
35.2404,44.9154
35.2744,-4.7685
35.3084,135.136
35.3424,54.3059
35.3764,79.6507
35.4104,13.7215
35.4444,12.3908
35.4784,92.3335
35.5124,83.0002
35.5464,121.247
35.5804,-113.362
35.6144,-206.561
35.6484,-132.138
35.6824,-96.4068
35.7164,-146.375
35.7504,-150.17
35.7844,65.4002
35.8184,-19.048
35.8524,166.267
35.8864,129.401
35.9204,107.629
35.9544,49.3512
35.9884,107.318
36.0224,174.91
36.0564,37.9886
36.0904,106.56
36.1244,97.8902
36.1584,-27.968
36.1924,33.17
36.2264,2.62072
36.2604,84.367
36.2944,132.245
36.3284,-73.9394
36.3624,124.102
36.3964,171.182
36.4304,134.536
36.4644,-92.9683
36.4984,-13.0776
36.5324,-46.8444
36.5664,221.2
36.6004,-110.609
36.6344,51.4894
36.6684,150.322
36.7024,-28.9173
36.7364,-0.499586
36.7704,-95.4577
36.8044,143.11
36.8384,-63.7621
36.8724,-50.1102
36.9064,22.6009
36.9404,214.677
36.9744,-53.5225
37.0084,55.6613
37.0424,26.9531
37.0764,25.2061
37.1104,39.3554
37.1444,40.634
37.1784,111.019
37.2124,81.7742
37.2464,55.3244
37.2804,72.8213
37.3144,84.1161
37.3484,57.7575
37.3824,15.1751
37.4164,134.217
37.4504,74.7557
37.4844,-59.7434
37.5184,61.7133
37.5524,-38.1457
37.5864,-7.47999
37.6204,45.1442
37.6544,-68.7737
37.6884,33.4352
37.7224,48.9814
37.7564,-20.0802
37.7904,51.9421
37.8244,-79.485
37.8584,117.781
37.8924,98.7984
37.9264,90.0145
37.9604,-22.2603
37.9944,80.0185
38.0284,107.267
38.0624,33.4308
38.0964,42.9246
38.1304,49.3007
38.1644,109.697
38.1984,51.7468
38.2324,63.0907
38.2664,25.4328
38.3004,159.301
38.3344,-9.30105
38.3684,118.486
38.4024,101.141
38.4364,168.404
38.4704,49.8902
38.5044,71.1216
38.5384,141.718
38.5724,-10.5187
38.6064,-13.1852
38.6404,-138.995
38.6744,23.9667
38.7084,78.1838
38.7424,4.29731
38.7764,88.9554
38.8104,75.7336
38.8444,38.1536
38.8784,212.824
38.9124,103.674
38.9464,88.9752
38.9804,46.9817
39.0144,109.136
39.0484,89.0542
39.0824,69.722
39.1164,61.594
39.1504,94.4805
39.1844,136.196
39.2184,99.4463
39.2524,33.1759
39.2864,-6.66139
39.3204,11.1907
39.3544,86.7784
39.3884,74.6465
39.4224,188.457
39.4564,48.8252
39.4904,48.6839
39.5244,-102.497
39.5584,5.88451
39.5924,74.0158
39.6264,-10.6778
39.6604,47.5306
39.6944,-55.8942
39.7284,-35.2097
39.7624,283.777
39.7964,-20.1218
39.8304,106.186
39.8644,3.58828
39.8984,7.01003
39.9324,175.497
39.9664,64.0252
40.0004,67.307
40.0344,102.63
40.0684,24.9838
40.1024,72.7283
40.1364,105.728
40.1704,80.5297
40.2044,162.281
40.2384,-0.68496
40.2724,87.0435
40.3064,73.2005
40.3404,14.4948
40.3744,68.7756
40.4084,84.3126
40.4424,119.128
40.4764,181.509
40.5104,40.9425
40.5444,-56.219
40.5784,157.303
40.6124,-50.8505
40.6464,134.244
40.6804,-136.746
40.7144,31.6074
40.7484,137.967
40.7824,79.5389
40.8164,117.557
40.8504,266.688
40.8844,176.575
40.9184,78.8259
40.9524,127.046
40.9864,108.682
41.0204,161.304
41.0544,244.359
41.0884,133.184
41.1224,211.841
41.1564,122.201
41.1904,42.7175
41.2244,-75.1977
41.2584,-73.3933
41.2924,-104.719
41.3264,-170.458
41.3604,-59.3268
41.3944,73.4325
41.4284,93.2571
41.4624,209.021
41.4964,382.994
41.5304,527.306
41.5644,227.322
41.5984,173.367
41.6324,184.621
41.6664,11.5122
41.7004,236.275
41.7344,-62.7986
41.7684,33.5827
41.8024,175.33
41.8364,114.93
41.8704,23.6106
41.9044,49.5926
41.9384,39.6127
41.9724,122.533
42.0064,1.02007
42.0404,-9.55492
42.0744,-18.0408
42.1084,65.4237
42.1424,48.867
42.1764,82.4905
42.2104,4.14486
42.2444,27.1245
42.2784,12.4098
42.3124,156.417
42.3464,-3.7545
42.3804,91.9176
42.4144,130.847
42.4484,-2.61433
42.4824,50.1456
42.5164,91.406
42.5504,71.5783
42.5844,-40.1325
42.6184,-125.622
42.6524,62.3213
42.6864,285.72
42.7204,114.93
42.7544,34.0174
42.7884,59.2484
42.8224,-45.4004
42.8564,0.915357
42.8904,94.0819
42.9244,49.8354
42.9584,87.8332
42.9924,-11.8436
43.0264,85.8244
43.0604,1.37403
43.0944,34.5651
43.1284,152.848
43.1624,68.9722
43.1964,95.8456
43.2304,103.748
43.2644,189.066
43.2984,131.328
43.3324,110.03
43.3664,-6.68624
43.4004,134.141
43.4344,134.567
43.4684,63.8381
43.5024,200.807
43.5364,192.369
43.5704,140.706
43.6044,169.628
43.6384,99.0923
43.6724,14.4752
43.7064,77.2667
43.7404,34.0035
43.7744,24.3612
43.8084,-1.46432
43.8424,118.02
43.8764,33.7437
43.9104,9.61036
43.9444,83.5088
43.9784,-99.132
44.0124,-6.9094
44.0464,-148.656
44.0804,-16.3109
44.1144,-42.0259
44.1484,1.63655
44.1824,11.689
44.2164,-76.4759
44.2504,-119.06
44.2844,-145.287
44.3184,-55.414
44.3524,25.5178
44.3864,138.72
44.4204,56.6355
44.4544,116.31
44.4884,111.023
44.5224,78.5776
44.5564,96.4674
44.5904,92.8352
44.6244,125.04
44.6584,180.845
44.6924,19.1032
44.7264,161.457
44.7604,161.555
44.7944,102.557
44.8284,45.9652
44.8624,71.0553
44.8964,129.738
44.9304,137.791
44.9644,-4.84384
44.9984,85.637
45.0324,116.543
45.0664,89.7236
45.1004,77.3415
45.1344,26.754
45.1684,133.304
45.2024,84.5149
45.2364,81.9662
45.2704,-4.7045
45.3044,55.3066
45.3384,5.66036
45.3724,-26.7562
45.4064,59.9923
45.4404,42.3085
45.4744,1.9235
45.5084,128.805
45.5424,12.2225
45.5764,42.4513
45.6104,14.4851
45.6444,-39.1349
45.6784,262.21
45.7124,-22.8918
45.7464,-14.082
45.7804,99.1009
45.8144,99.015
45.8484,35.2304
45.8824,101.157
45.9164,102.848
45.9504,47.6236
45.9844,76.8793
46.0184,117.312
46.0524,16.717
46.0864,-90.2483
46.1204,-8.32402
46.1544,19.4189
46.1884,57.9465
46.2224,-17.4069
46.2564,83.0536
46.2904,57.104
46.3244,84.0929
46.3584,26.2415
46.3924,83.3238
46.4264,141.491
46.4604,-47.7922
46.4944,-18.3194
46.5284,87.4495
46.5624,77.1481
46.5964,18.5289
46.6304,-4.28348
46.6644,199.168
46.6984,-13.279
46.7324,26.1516
46.7664,117.45
46.8004,28.1072
46.8344,49.2333
46.8684,-13.6607
46.9024,102.212
46.9364,37.6684
46.9704,46.8296
47.0044,73.8244
47.0384,153.541
47.0724,-23.5044
47.1064,-56.0567
47.1404,-70.5318
47.1744,39.0473
47.2084,143.838
47.2424,84.0227
47.2764,127.193
47.3104,2.10785
47.3444,22.7118
47.3784,97.4932
47.4124,-37.0344
47.4464,-6.40106
47.4804,-80.5217
47.5144,81.7228
47.5484,90.2377
47.5824,-4.64653
47.6164,68.7481
47.6504,-31.6475
47.6844,0.0658427
47.7184,6.70126
47.7524,-21.653
47.7864,73.4355
47.8204,100.21
47.8544,166.411
47.8884,-113.011
47.9224,41.847
47.9564,93.9236
47.9904,141.287
48.0244,45.8625
48.0584,68.3261
48.0924,124.355
48.1264,69.8053
48.1604,35.3913
48.1944,113.834
48.2284,16.426
48.2624,28.1397
48.2964,139.463
48.3304,49.3366
48.3644,85.3283
48.3984,54.7101
48.4324,-165.402
48.4664,-0.606501
48.5004,46.1255
48.5344,92.5836
48.5684,124.484
48.6024,-52.912
48.6364,4.19187
48.6704,42.907
48.7044,79.8802
48.7384,113.796
48.7724,235.869
48.8064,108.812
48.8404,2.29914
48.8744,43.8618
48.9084,-56.2512
48.9424,78.932
48.9764,86.2172
49.0104,53.6756
49.0444,161.756
49.0784,7.664
49.1124,103.112
49.1464,-15.3621
49.1804,90.7312
49.2144,-79.3011
49.2484,182.115
49.2824,4.95392
49.3164,97.0854
49.3504,33.0318
49.3844,40.2166
49.4184,90.8176
49.4524,18.6404
49.4864,83.987
49.5204,74.3524
49.5544,42.956
49.5884,145.242
49.6224,82.7105
49.6564,109.686
49.6904,239.222
49.7244,-8.24102
49.7584,156.556
49.7924,57.1634
49.8264,99.4633
49.8604,136.077
49.8944,120.161
49.9284,164.501
49.9624,127.356
49.9964,-45.4752
50.0304,-166.147
50.0644,-221.075
50.0984,-191.48
50.1324,-196.97
50.1664,-17.6353
50.2004,132.804
50.2344,-25.757
50.2684,53.6087
50.3024,129.104
50.3364,104.204
50.3704,118.286
50.4044,136.414
50.4384,167.965
50.4724,73.2556
50.5064,50.03
50.5404,29.3348
50.5744,133.734
50.6084,29.3449
50.6424,33.4625
50.6764,111.935
50.7104,59.8033
50.7444,90.2972
50.7784,100.543
50.8124,-43.2207
50.8464,39.6129
50.8804,295.301
50.9144,90.892
50.9484,63.4306
50.9824,48.7544
51.0164,151.784
51.0504,35.8203
51.0844,94.1484
51.1184,27.4691
51.1524,98.8916
51.1864,28.5861
51.2204,-1.16856
51.2544,15.5182
51.2884,78.9439
51.3224,18.5092
51.3564,1.45211
51.3904,84.3659
51.4244,-10.3595
51.4584,201.262
51.4924,120.747
51.5264,-12.8928
51.5604,71.3141
51.5944,-50.4895
51.6284,5.25048
51.6624,-10.8265
51.6964,30.2228
51.7304,103.26
51.7644,61.2923
51.7984,119.181
51.8324,88.65
51.8664,15.2262
51.9004,31.6794
51.9344,1.77076
51.9684,-44.7912
52.0024,144.029
52.0364,79.1004
52.0704,96.1058
52.1044,172.476
52.1384,179.471
52.1724,131.95
52.2064,107.586
52.2404,222.378
52.2744,48.0336
52.3084,61.979
52.3424,110.82
52.3764,162.546
52.4104,106.966
52.4444,60.4398
52.4784,107.578
52.5124,-49.3077
52.5464,47.6988
52.5804,-124.042
52.6144,33.6969
52.6484,-32.9824
52.6824,-34.7971
52.7164,93.3338
52.7504,-46.1877
52.7844,162.58
52.8184,95.7957
52.8524,153.74
52.8864,125.24
52.9204,141.003
52.9544,117.11
52.9884,41.6962
53.0224,74.1374
53.0564,119.301
53.0904,125.687
53.1244,72.2969
53.1584,66.6586
53.1924,28.3652
53.2264,1.23232
53.2604,-82.7903
53.2944,-20.1072
53.3284,9.07771
53.3624,63.2639
53.3964,181.267
53.4304,60.2524
53.4644,14.4419
53.4984,273.95
53.5324,61.9564
53.5664,72.4787
53.6004,29.0111
53.6344,47.7651
53.6684,148.101
53.7024,124.291
53.7364,187.122
53.7704,64.617
53.8044,8.44887
53.8384,-7.15273
53.8724,0.650715
53.9064,97.1877
53.9404,17.9119
53.9744,102.907
54.0084,81.8303
54.0424,-58.1733
54.0764,46.3961
54.1104,12.2264
54.1444,96.7954
54.1784,-28.0786
54.2124,-22.9867
54.2464,103.642
54.2804,130.396
54.3144,106.061
54.3484,164.167
54.3824,86.1144
54.4164,10.4806
54.4504,122.844
54.4844,62.8147
54.5184,-5.69033
54.5524,103.952
54.5864,-20.7425
54.6204,-28.3243
54.6544,4.46152
54.6884,94.8806
54.7224,36.1305
54.7564,98.9617
54.7904,58.1886
54.8244,103.777
54.8584,101.678
54.8924,105.257
54.9264,93.8703
54.9604,153.412
54.9944,56.9559
55.0284,73.2675
55.0624,188.139
55.0964,236.372
55.1304,306.707
55.1644,200.172
55.1984,283.659
55.2324,303.185
55.2664,232.232
55.3004,64.8911
55.3344,-104.015
55.3684,-381.613
55.4024,-187.47
55.4364,-78.9884
55.4704,-12.4104
55.5044,-52.0394
55.5384,-64.6614
55.5724,166.618
55.6064,211.311
55.6404,214.985
55.6744,108.136
55.7084,341.439
55.7424,264.819
55.7764,167.985
55.8104,207.115
55.8444,198.517
55.8784,83.8688
55.9124,184.157
55.9464,169.326
55.9804,121.856
56.0144,97.6306
56.0484,131.456
56.0824,18.4427
56.1164,90.1552
56.1504,63.2153
56.1844,-50.1668
56.2184,21.0911
56.2524,-147.16
56.2864,-145.659
56.3204,-12.4237
56.3544,43.4058
56.3884,-69.3459
56.4224,24.1182
56.4564,281.533
56.4904,98.2716
56.5244,95.479
56.5584,112.228
56.5924,72.7839
56.6264,188.73
56.6604,161.929
56.6944,187.867
56.7284,4.91102
56.7624,125.927
56.7964,45.5812
56.8304,75.5254
56.8644,164.824
56.8984,6.96017
56.9324,135.004
56.9664,53.7634
57.0004,14.9235
57.0344,154.298
57.0684,147.422
57.1024,114.054
57.1364,102.127
57.1704,39.3374
57.2044,143.511
57.2384,9.15513
57.2724,112.125
57.3064,132.932
57.3404,10.674
57.3744,235.363
57.4084,67.4192
57.4424,185.952
57.4764,55.2946
57.5104,-22.8392
57.5444,-133.486
57.5784,-324.103
57.6124,-295.232
57.6464,-270.739
57.6804,-224.027
57.7144,-99.0402
57.7484,-43.1207
57.7824,57.7444
57.8164,2.44599
57.8504,111.874
57.8844,148.288
57.9184,218.873
57.9524,151.06
57.9864,167.035
58.0204,150.902
58.0544,236.2
58.0884,135.014
58.1224,174.644
58.1564,47.0737
58.1904,156.686
58.2244,152.018
58.2584,131.648
58.2924,108.241
58.3264,166.933
58.3604,259.515
58.3944,25.5432
58.4284,-64.5861
58.4624,44.6824
58.4964,146.276
58.5304,84.7684
58.5644,93.7864
58.5984,9.90278
58.6324,54.7467
58.6664,-75.6724
58.7004,74.6832
58.7344,90.41
58.7684,92.387
58.8024,47.0611
58.8364,89.2913
58.8704,3.0287
58.9044,156.987
58.9384,9.4498
58.9724,70.3208
59.0064,82.7571
59.0404,5.79434
59.0744,51.7324
59.1084,34.9062
59.1424,-41.7801
59.1764,109.119
59.2104,124.368
59.2444,138.761
59.2784,78.6448
59.3124,92.7955
59.3464,109.671
59.3804,99.7544
59.4144,153.587
59.4484,42.5026
59.4824,44.9168
59.5164,-69.4792
59.5504,16.1502
59.5844,25.0502
59.6184,55.6874
59.6524,33.2974
59.6864,86.6047
59.7204,5.36677
59.7544,-79.8192
59.7884,-5.93528
59.8224,45.9358
59.8564,-7.28178
59.8904,54.5498
59.9244,97.93
59.9584,165.567
59.9924,60.6714
60.0264,116.737
60.0604,119.6
60.0944,77.9475
60.1284,-16.9693
60.1624,116.541
60.1964,131.217
60.2304,47.1936
60.2644,117.144
60.2984,96.6595
60.3324,164.903
60.3664,20.0216
60.4004,153.029
60.4344,80.3487
60.4684,127.632
60.5024,64.4108
60.5364,-28.0298
60.5704,-44.6336
60.6044,85.1926
60.6384,59.421
60.6724,56.0102
60.7064,61.2354
60.7404,132.511
60.7744,34.1412
60.8084,57.1894
60.8424,126.646
60.8764,137.408
60.9104,72.5491
60.9444,125.762
60.9784,-2.19778
61.0124,92.4437
61.0464,112.262
61.0804,119.939
61.1144,233.398
61.1484,32.6708
61.1824,12.9593
61.2164,119.401
61.2504,151.438
61.2844,60.7889
61.3184,116.692
61.3524,-38.2234
61.3864,-23.2522
61.4204,38.8592
61.4544,158.44
61.4884,114.444
61.5224,90.1598
61.5564,38.0833
61.5904,104.396
61.6244,-89.0534
61.6584,-3.31107
61.6924,10.725
61.7264,123.205
61.7604,33.9214
61.7944,138.323
61.8284,59.7472
61.8624,23.4339
61.8964,81.91
61.9304,78.9221
61.9644,92.4272
61.9984,-17.5426
62.0324,-69.6633
62.0664,117.65
62.1004,81.6251
62.1344,122.044
62.1684,68.5817
62.2024,9.77396
62.2364,59.5725
62.2704,121.829
62.3044,-64.4892
62.3384,68.5251
62.3724,114.724
62.4064,53.9461
62.4404,134.797
62.4744,181.279
62.5084,126.778
62.5424,155.043
62.5764,151.161
62.6104,178.873
62.6444,123.072
62.6784,118.099
62.7124,176.28
62.7464,232.131
62.7804,202.1
62.8144,107.082
62.8484,111.225
62.8824,71.2737
62.9164,0.429811
62.9504,-101.266
62.9844,-58.7741
63.0184,-23.675
63.0524,-49.016
63.0864,67.2239
63.1204,110.927
63.1544,-0.519472
63.1884,67.5657
63.2224,125.29
63.2564,172.874
63.2904,179.089
63.3244,114.495
63.3584,236.775
63.3924,141.245
63.4264,283.402
63.4604,197.019
63.4944,219.864
63.5284,82.0326
63.5624,94.3837
63.5964,139.236
63.6304,215.315
63.6644,114.34
63.6984,67.0564
63.7324,173.349
63.7664,104.502
63.8004,88.0952
63.8344,252.47
63.8684,118.979
63.9024,76.3845
63.9364,14.2399
63.9704,-152.496
64.0044,-235.305
64.0384,-251.427
64.0724,-149.078
64.1064,11.1714
64.1404,-5.2583
64.1744,33.1524
64.2084,47.6866
64.2424,-26.5827
64.2764,143.995
64.3104,233.575
64.3444,316.962
64.3784,127.25
64.4124,255.224
64.4464,257.74
64.4804,188.765
64.5144,137.41
64.5484,89.2421
64.5824,140.551
64.6164,-0.498471
64.6504,86.2591
64.6844,106.936
64.7184,34.5689
64.7524,137.635
64.7864,109.437
64.8204,199.688
64.8544,118.08
64.8884,91.5128
64.9224,236.062
64.9564,171.869
64.9904,85.7733
65.0244,70.0622
65.0584,140.77
65.0924,89.6918
65.1264,220.184
65.1604,17.7888
65.1944,157.867
65.2284,-33.6258
65.2624,-137.824
65.2964,108.037
65.3304,139.408
65.3644,117.079
65.3984,126.198
65.4324,54.45
65.4664,29.5609
65.5004,28.9057
65.5344,54.9188
65.5684,-58.4138
65.6024,28.0921
65.6364,197.418
65.6704,74.1795
65.7044,51.9675
65.7384,47.6166
65.7724,89.8138
65.8064,75.991
65.8404,127.267
65.8744,31.1005
65.9084,205.063
65.9424,100.087
65.9764,-54.6322
66.0104,47.5801
66.0444,-79.0437
66.0784,104.489
66.1124,31.2606
66.1464,97.7818
66.1804,167.655
66.2144,66.5447
66.2484,16.9548
66.2824,181.683
66.3164,-13.8258
66.3504,61.3532
66.3844,118.488
66.4184,144.333
66.4524,97.8676
66.4864,157.927
66.5204,132.853
66.5544,107.86
66.5884,161.367
66.6224,90.0323
66.6564,56.8975
66.6904,120.231
66.7244,-0.118901
66.7584,115.054
66.7924,-3.37634
66.8264,40.107
66.8604,70.4474
66.8944,19.2765
66.9284,146.945
66.9624,47.0944
66.9964,41.8049
67.0304,66.1033
67.0644,120.189
67.0984,182.846
67.1324,91.9729
67.1664,74.6057
67.2004,-29.0326
67.2344,82.2485
67.2684,90.4094
67.3024,80.3894
67.3364,76.4901
67.3704,175.464
67.4044,64.4236
67.4384,117.422
67.4724,140.91
67.5064,-29.3726
67.5404,115.176
67.5744,44.6607
67.6084,35.8753
67.6424,-19.1773
67.6764,33.2198
67.7104,72.6692
67.7444,85.4886
67.7784,45.8203
67.8124,151.175
67.8464,238.372
67.8804,149.761
67.9144,63.2486
67.9484,191.719
67.9824,45.1697
68.0164,133.549
68.0504,53.8058
68.0844,100.584
68.1184,254.5
68.1524,109.145
68.1864,96.6704
68.2204,2.48934
68.2544,194.769
68.2884,36.2302
68.3224,109.982
68.3564,40.4917
68.3904,2.51401
68.4244,103.567
68.4584,73.9739
68.4924,166.853
68.5264,87.5861
68.5604,83.5598
68.5944,65.5083
68.6284,114.41
68.6624,36.925
68.6964,152.092
68.7304,71.1714
68.7644,125.108
68.7984,118.269
68.8324,122.548
68.8664,76.0083
68.9004,151.208
68.9344,150.318
68.9684,62.8519
69.0024,123.045
69.0364,249.358
69.0704,221.858
69.1044,113.626
69.1384,105.351
69.1724,97.4975
69.2064,145.828
69.2404,35.3578
69.2744,-11.3382
69.3084,-0.864348
69.3424,31.5029
69.3764,156.922
69.4104,33.0495
69.4444,141.132
69.4784,155.665
69.5124,162.588
69.5464,106.135
69.5804,215.874
69.6144,123.529
69.6484,159.66
69.6824,53.777
69.7164,97.2358
69.7504,-77.7225
69.7844,99.0772
69.8184,102.28
69.8524,-48.3379
69.8864,150.139
69.9204,54.7971
69.9544,0.471803
69.9884,-0.0483773