File: herald_visualization/Delia_Scripts/CoF3/240827-CoF3_1to1_KS6Lgraphite-0min_milled-20-70deg_40min.csv
2Theta,Intensity
20.0084,8543.0
20.0418,8470.0
20.0752,8509.0
20.1086,8506.0
20.142,8445.0
20.1755,8554.0
20.2089,8320.0
20.2423,8474.0
20.2757,8333.0
20.3092,8414.0
20.3426,8493.0
20.376,8429.0
20.4094,8438.0
20.4428,8475.0
20.4763,8370.0
20.5097,8385.0
20.5431,8229.0
20.5765,8565.0
20.61,8319.0
20.6434,8284.0
20.6768,8373.0
20.7102,8327.0
20.7437,8391.0
20.7771,8261.0
20.8105,8186.0
20.8439,8243.0
20.8773,8342.0
20.9108,8240.0
20.9442,8320.0
20.9776,8062.0
21.011,8206.0
21.0445,8211.0
21.0779,8037.0
21.1113,8240.0
21.1447,8080.0
21.1781,8210.0
21.2116,7963.0
21.245,8106.0
21.2784,8126.0
21.3118,7981.0
21.3453,7996.0
21.3787,8206.0
21.4121,7850.0
21.4455,7978.0
21.4789,8001.0
21.5124,7789.0
21.5458,7918.0
21.5792,8130.0
21.6126,8047.0
21.6461,7816.0
21.6795,7987.0
21.7129,7853.0
21.7463,7974.0
21.7798,7853.0
21.8132,8044.0
21.8466,7824.0
21.88,7890.0
21.9134,7825.0
21.9469,7858.0
21.9803,8084.0
22.0137,7973.0
22.0471,7981.0
22.0806,7770.0
22.114,7848.0
22.1474,7847.0
22.1808,7846.0
22.2142,7687.0
22.2477,7709.0
22.2811,7577.0
22.3145,7883.0
22.3479,7845.0
22.3814,7737.0
22.4148,7721.0
22.4482,7612.0
22.4816,7767.0
22.515,7688.0
22.5485,7800.0
22.5819,7652.0
22.6153,7766.0
22.6487,7667.0
22.6822,7679.0
22.7156,7677.0
22.749,7653.0
22.7824,7740.0
22.8158,7583.0
22.8493,7584.0
22.8827,7602.0
22.9161,7462.0
22.9495,7616.0
22.983,7551.0
23.0164,7738.0
23.0498,7535.0
23.0832,7544.0
23.1167,7563.0
23.1501,7612.0
23.1835,7458.0
23.2169,7388.0
23.2503,7486.0
23.2838,7674.0
23.3172,7400.0
23.3506,7535.0
23.384,7434.0
23.4175,7405.0
23.4509,7454.0
23.4843,7464.0
23.5177,7387.0
23.5511,7484.0
23.5846,7373.0
23.618,7500.0
23.6514,7532.0
23.6848,7678.0
23.7183,7529.0
23.7517,7425.0
23.7851,7460.0
23.8185,7550.0
23.8519,7548.0
23.8854,7585.0
23.9188,7641.0
23.9522,7558.0
23.9856,7545.0
24.0191,7714.0
24.0525,7635.0
24.0859,7679.0
24.1193,7881.0
24.1528,8006.0
24.1862,7865.0
24.2196,8298.0
24.253,8846.0
24.2864,9076.0
24.3199,9934.0
24.3533,10862.0
24.3867,12652.0
24.4201,14606.0
24.4536,17330.0
24.487,19014.0
24.5204,18286.0
24.5538,15668.0
24.5872,12817.0
24.6207,10498.0
24.6541,9088.0
24.6875,8678.0
24.7209,8251.0
24.7544,8015.0
24.7878,7742.0
24.8212,7562.0
24.8546,7404.0
24.888,7492.0
24.9215,7500.0
24.9549,7387.0
24.9883,7392.0
25.0217,7341.0
25.0552,7489.0
25.0886,7162.0
25.122,7205.0
25.1554,7227.0
25.1888,7331.0
25.2223,7326.0
25.2557,7391.0
25.2891,7289.0
25.3225,7232.0
25.356,7236.0
25.3894,7223.0
25.4228,7256.0
25.4562,7388.0
25.4897,7235.0
25.5231,7250.0
25.5565,7473.0
25.5899,7364.0
25.6233,7345.0
25.6568,7313.0
25.6902,7311.0
25.7236,7284.0
25.757,7143.0
25.7905,7486.0
25.8239,7282.0
25.8573,7386.0
25.8907,7323.0
25.9241,7306.0
25.9576,7223.0
25.991,7376.0
26.0244,7456.0
26.0578,7388.0
26.0913,7306.0
26.1247,7198.0
26.1581,7410.0
26.1915,7267.0
26.2249,7314.0
26.2584,7311.0
26.2918,7361.0
26.3252,7431.0
26.3586,7624.0
26.3921,7491.0
26.4255,7746.0
26.4589,7856.0
26.4923,8023.0
26.5258,8267.0
26.5592,8539.0
26.5926,8636.0
26.626,8259.0
26.6594,7936.0
26.6929,7786.0
26.7263,7584.0
26.7597,7476.0
26.7931,7503.0
26.8266,7356.0
26.86,7517.0
26.8934,7265.0
26.9268,7233.0
26.9602,7089.0
26.9937,6977.0
27.0271,7160.0
27.0605,7089.0
27.0939,7230.0
27.1274,7276.0
27.1608,7243.0
27.1942,7160.0
27.2276,7337.0
27.261,7095.0
27.2945,7098.0
27.3279,7112.0
27.3613,7101.0
27.3947,7211.0
27.4282,6999.0
27.4616,7060.0
27.495,7078.0
27.5284,7060.0
27.5618,7213.0
27.5953,7153.0
27.6287,6804.0
27.6621,7120.0
27.6955,6887.0
27.729,7142.0
27.7624,6933.0
27.7958,7154.0
27.8292,7075.0
27.8627,6987.0
27.8961,7102.0
27.9295,6892.0
27.9629,6944.0
27.9963,7099.0
28.0298,6923.0
28.0632,6946.0
28.0966,7010.0
28.13,6972.0
28.1635,7174.0
28.1969,6954.0
28.2303,7096.0
28.2637,7029.0
28.2971,6932.0
28.3306,6814.0
28.364,6916.0
28.3974,7089.0
28.4308,6992.0
28.4643,6948.0
28.4977,6996.0
28.5311,7040.0
28.5645,6869.0
28.5979,6916.0
28.6314,6903.0
28.6648,6994.0
28.6982,6744.0
28.7316,6910.0
28.7651,6907.0
28.7985,6821.0
28.8319,7005.0
28.8653,7135.0
28.8988,6703.0
28.9322,6947.0
28.9656,6857.0
28.999,6900.0
29.0324,6812.0
29.0659,7043.0
29.0993,6860.0
29.1327,7003.0
29.1661,6750.0
29.1996,6930.0
29.233,6879.0
29.2664,6907.0
29.2998,6931.0
29.3332,6863.0
29.3667,6902.0
29.4001,6783.0
29.4335,6721.0
29.4669,6831.0
29.5004,6736.0
29.5338,6877.0
29.5672,6782.0
29.6006,6807.0
29.634,6865.0
29.6675,6602.0
29.7009,6722.0
29.7343,6787.0
29.7677,6701.0
29.8012,6734.0
29.8346,6831.0
29.868,6889.0
29.9014,6721.0
29.9348,6883.0
29.9683,6822.0
30.0017,6919.0
30.0351,6758.0
30.0685,6753.0
30.102,6814.0
30.1354,6949.0
30.1688,6734.0
30.2022,6768.0
30.2357,6783.0
30.2691,6776.0
30.3025,6749.0
30.3359,6810.0
30.3693,6671.0
30.4028,6819.0
30.4362,6822.0
30.4696,6737.0
30.503,6755.0
30.5365,6715.0
30.5699,6671.0
30.6033,6756.0
30.6367,6618.0
30.6701,6637.0
30.7036,6718.0
30.737,6650.0
30.7704,6706.0
30.8038,6650.0
30.8373,6535.0
30.8707,6695.0
30.9041,6717.0
30.9375,6653.0
30.9709,6619.0
31.0044,6709.0
31.0378,6724.0
31.0712,6728.0
31.1046,6741.0
31.1381,6860.0
31.1715,6599.0
31.2049,6606.0
31.2383,6686.0
31.2718,6649.0
31.3052,6549.0
31.3386,6556.0
31.372,6606.0
31.4054,6729.0
31.4389,6695.0
31.4723,6714.0
31.5057,6591.0
31.5391,6708.0
31.5726,6769.0
31.606,6661.0
31.6394,6533.0
31.6728,6602.0
31.7062,6688.0
31.7397,6667.0
31.7731,6697.0
31.8065,6656.0
31.8399,6511.0
31.8734,6603.0
31.9068,6771.0
31.9402,6569.0
31.9736,6621.0
32.007,6578.0
32.0405,6697.0
32.0739,6640.0
32.1073,6555.0
32.1407,6488.0
32.1742,6521.0
32.2076,6607.0
32.241,6650.0
32.2744,6399.0
32.3078,6649.0
32.3413,6545.0
32.3747,6541.0
32.4081,6555.0
32.4415,6635.0
32.475,6605.0
32.5084,6609.0
32.5418,6674.0
32.5752,6555.0
32.6087,6630.0
32.6421,6653.0
32.6755,6495.0
32.7089,6584.0
32.7423,6554.0
32.7758,6609.0
32.8092,6552.0
32.8426,6650.0
32.876,6515.0
32.9095,6756.0
32.9429,6591.0
32.9763,6588.0
33.0097,6633.0
33.0431,6528.0
33.0766,6510.0
33.11,6678.0
33.1434,6437.0
33.1768,6578.0
33.2103,6760.0
33.2437,6717.0
33.2771,6669.0
33.3105,6548.0
33.3439,6531.0
33.3774,6625.0
33.4108,6527.0
33.4442,6598.0
33.4776,6594.0
33.5111,6556.0
33.5445,6480.0
33.5779,6479.0
33.6113,6499.0
33.6448,6743.0
33.6782,6700.0
33.7116,6656.0
33.745,6579.0
33.7784,6733.0
33.8119,6706.0
33.8453,6776.0
33.8787,7001.0
33.9121,7190.0
33.9456,7267.0
33.979,7504.0
34.0124,7688.0
34.0458,7923.0
34.0792,8055.0
34.1127,8038.0
34.1461,7804.0
34.1795,7504.0
34.2129,7173.0
34.2464,7082.0
34.2798,6860.0
34.3132,6743.0
34.3466,6572.0
34.38,6702.0
34.4135,6693.0
34.4469,6632.0
34.4803,6578.0
34.5137,6489.0
34.5472,6547.0
34.5806,6558.0
34.614,6755.0
34.6474,6619.0
34.6808,6558.0
34.7143,6385.0
34.7477,6630.0
34.7811,6567.0
34.8145,6626.0
34.848,6656.0
34.8814,6459.0
34.9148,6471.0
34.9482,6528.0
34.9817,6406.0
35.0151,6445.0
35.0485,6502.0
35.0819,6701.0
35.1153,6600.0
35.1488,6540.0
35.1822,6520.0
35.2156,6498.0
35.249,6490.0
35.2825,6492.0
35.3159,6537.0
35.3493,6557.0
35.3827,6605.0
35.4161,6429.0
35.4496,6481.0
35.483,6659.0
35.5164,6711.0
35.5498,6814.0
35.5833,6668.0
35.6167,6713.0
35.6501,6934.0
35.6835,7026.0
35.7169,6947.0
35.7504,6850.0
35.7838,6947.0
35.8172,6721.0
35.8506,6822.0
35.8841,6698.0
35.9175,6625.0
35.9509,6539.0
35.9843,6552.0
36.0178,6622.0
36.0512,6476.0
36.0846,6521.0
36.118,6615.0
36.1514,6364.0
36.1849,6370.0
36.2183,6297.0
36.2517,6572.0
36.2851,6530.0
36.3186,6327.0
36.352,6454.0
36.3854,6595.0
36.4188,6449.0
36.4522,6471.0
36.4857,6509.0
36.5191,6410.0
36.5525,6442.0
36.5859,6575.0
36.6194,6477.0
36.6528,6418.0
36.6862,6338.0
36.7196,6380.0
36.753,6488.0
36.7865,6339.0
36.8199,6528.0
36.8533,6429.0
36.8867,6444.0
36.9202,6411.0
36.9536,6463.0
36.987,6222.0
37.0204,6417.0
37.0538,6491.0
37.0873,6481.0
37.1207,6468.0
37.1541,6524.0
37.1875,6480.0
37.221,6477.0
37.2544,6378.0
37.2878,6308.0
37.3212,6546.0
37.3547,6443.0
37.3881,6407.0
37.4215,6523.0
37.4549,6448.0
37.4883,6251.0
37.5218,6443.0
37.5552,6311.0
37.5886,6361.0
37.622,6391.0
37.6555,6271.0
37.6889,6387.0
37.7223,6401.0
37.7557,6325.0
37.7891,6388.0
37.8226,6266.0
37.856,6458.0
37.8894,6426.0
37.9228,6448.0
37.9563,6337.0
37.9897,6423.0
38.0231,6386.0
38.0565,6391.0
38.0899,6352.0
38.1234,6398.0
38.1568,6531.0
38.1902,6398.0
38.2236,6410.0
38.2571,6451.0
38.2905,6453.0
38.3239,6271.0
38.3573,6476.0
38.3908,6293.0
38.4242,6614.0
38.4576,6348.0
38.491,6287.0
38.5244,6216.0
38.5579,6315.0
38.5913,6369.0
38.6247,6279.0
38.6581,6458.0
38.6916,6449.0
38.725,6489.0
38.7584,6355.0
38.7918,6378.0
38.8252,6345.0
38.8587,6433.0
38.8921,6544.0
38.9255,6325.0
38.9589,6444.0
38.9924,6398.0
39.0258,6366.0
39.0592,6320.0
39.0926,6250.0
39.126,6279.0
39.1595,6348.0
39.1929,6457.0
39.2263,6372.0
39.2597,6337.0
39.2932,6320.0
39.3266,6285.0
39.36,6429.0
39.3934,6378.0
39.4269,6514.0
39.4603,6288.0
39.4937,6375.0
39.5271,6152.0
39.5605,6289.0
39.594,6361.0
39.6274,6273.0
39.6608,6337.0
39.6942,6233.0
39.7277,6255.0
39.7611,6585.0
39.7945,6280.0
39.8279,6402.0
39.8613,6317.0
39.8948,6271.0
39.9282,6466.0
39.9616,6274.0
39.995,6359.0
40.0285,6444.0
40.0619,6311.0
40.0953,6372.0
40.1287,6431.0
40.1621,6387.0
40.1956,6611.0
40.229,6239.0
40.2624,6331.0
40.2958,6384.0
40.3293,6265.0
40.3627,6217.0
40.3961,6322.0
40.4295,6437.0
40.4629,6421.0
40.4964,6371.0
40.5298,6170.0
40.5632,6343.0
40.5966,6306.0
40.6301,6570.0
40.6635,6372.0
40.6969,6407.0
40.7303,6348.0
40.7638,6380.0
40.7972,6324.0
40.8306,6563.0
40.864,6497.0
40.8974,6386.0
40.9309,6490.0
40.9643,6536.0
40.9977,6422.0
41.0311,6530.0
41.0646,6720.0
41.098,6592.0
41.1314,6750.0
41.1648,6823.0
41.1982,6933.0
41.2317,7175.0
41.2651,7403.0
41.2985,7703.0
41.3319,7668.0
41.3654,7621.0
41.3988,7550.0
41.4322,7335.0
41.4656,7153.0
41.499,7134.0
41.5325,7143.0
41.5659,6706.0
41.5993,6578.0
41.6327,6555.0
41.6662,6357.0
41.6996,6572.0
41.733,6257.0
41.7664,6325.0
41.7999,6514.0
41.8333,6462.0
41.8667,6325.0
41.9001,6351.0
41.9335,6370.0
41.967,6455.0
42.0004,6343.0
42.0338,6224.0
42.0672,6176.0
42.1007,6321.0
42.1341,6342.0
42.1675,6358.0
42.2009,6224.0
42.2343,6256.0
42.2678,6275.0
42.3012,6529.0
42.3346,6202.0
42.368,6368.0
42.4015,6354.0
42.4349,6205.0
42.4683,6216.0
42.5017,6349.0
42.5351,6313.0
42.5686,6389.0
42.602,6321.0
42.6354,6210.0
42.6688,6334.0
42.7023,6374.0
42.7357,6277.0
42.7691,6135.0
42.8025,6423.0
42.8359,6430.0
42.8694,6226.0
42.9028,6277.0
42.9362,6306.0
42.9696,6303.0
43.0031,6137.0
43.0365,6389.0
43.0699,6423.0
43.1033,6198.0
43.1368,6408.0
43.1702,6309.0
43.2036,6342.0
43.237,6354.0
43.2704,6442.0
43.3039,6406.0
43.3373,6343.0
43.3707,6229.0
43.4041,6386.0
43.4376,6350.0
43.471,6303.0
43.5044,6455.0
43.5378,6482.0
43.5712,6434.0
43.6047,6507.0
43.6381,6484.0
43.6715,6448.0
43.7049,6564.0
43.7384,6540.0
43.7718,6511.0
43.8052,6422.0
43.8386,6517.0
43.872,6438.0
43.9055,6392.0
43.9389,6451.0
43.9723,6250.0
44.0057,6354.0
44.0392,6237.0
44.0726,6392.0
44.106,6447.0
44.1394,6375.0
44.1729,6407.0
44.2063,6217.0
44.2397,6134.0
44.2731,6101.0
44.3065,6347.0
44.34,6360.0
44.3734,6368.0
44.4068,6374.0
44.4402,6270.0
44.4737,6257.0
44.5071,6430.0
44.5405,6364.0
44.5739,6132.0
44.6073,6212.0
44.6408,6141.0
44.6742,6412.0
44.7076,6225.0
44.741,6323.0
44.7745,6257.0
44.8079,6462.0
44.8413,6435.0
44.8747,6408.0
44.9081,6219.0
44.9416,6313.0
44.975,6234.0
45.0084,6217.0
45.0418,6334.0
45.0753,6241.0
45.1087,6263.0
45.1421,6177.0
45.1755,6423.0
45.2089,6296.0
45.2424,6301.0
45.2758,6169.0
45.3092,6255.0
45.3426,6231.0
45.3761,6131.0
45.4095,6249.0
45.4429,6229.0
45.4763,6197.0
45.5098,6332.0
45.5432,6208.0
45.5766,6231.0
45.61,6205.0
45.6434,6145.0
45.6769,6471.0
45.7103,6155.0
45.7437,6175.0
45.7771,6297.0
45.8106,6288.0
45.844,6171.0
45.8774,6200.0
45.9108,6334.0
45.9442,6155.0
45.9777,6240.0
46.0111,6195.0
46.0445,6260.0
46.0779,6040.0
46.1114,6184.0
46.1448,6217.0
46.1782,6293.0
46.2116,6181.0
46.245,6200.0
46.2785,6203.0
46.3119,6107.0
46.3453,6199.0
46.3787,6349.0
46.4122,6260.0
46.4456,6249.0
46.479,6222.0
46.5124,6302.0
46.5459,6258.0
46.5793,5940.0
46.6127,6363.0
46.6461,6293.0
46.6795,6166.0
46.713,6119.0
46.7464,6329.0
46.7798,6271.0
46.8132,6208.0
46.8467,6181.0
46.8801,6228.0
46.9135,6169.0
46.9469,6185.0
46.9803,6166.0
47.0138,6256.0
47.0472,6294.0
47.0806,6121.0
47.114,6212.0
47.1475,6060.0
47.1809,6169.0
47.2143,6373.0
47.2477,6253.0
47.2811,6290.0
47.3146,6199.0
47.348,6201.0
47.3814,6270.0
47.4148,6115.0
47.4483,6125.0
47.4817,6069.0
47.5151,6243.0
47.5485,6248.0
47.5819,6149.0
47.6154,6227.0
47.6488,6122.0
47.6822,6130.0
47.7156,6124.0
47.7491,6103.0
47.7825,6198.0
47.8159,6270.0
47.8493,6306.0
47.8828,6037.0
47.9162,6274.0
47.9496,6158.0
47.983,6366.0
48.0164,6185.0
48.0499,6164.0
48.0833,6313.0
48.1167,6399.0
48.1501,6069.0
48.1836,6218.0
48.217,6258.0
48.2504,6191.0
48.2838,6254.0
48.3172,6096.0
48.3507,6182.0
48.3841,6317.0
48.4175,6158.0
48.4509,6261.0
48.4844,6130.0
48.5178,6181.0
48.5512,6188.0
48.5846,6205.0
48.618,6164.0
48.6515,6382.0
48.6849,6289.0
48.7183,6265.0
48.7517,6185.0
48.7852,6363.0
48.8186,6162.0
48.852,6188.0
48.8854,6195.0
48.9189,6092.0
48.9523,6316.0
48.9857,6219.0
49.0191,6257.0
49.0525,6329.0
49.086,6270.0
49.1194,6313.0
49.1528,6086.0
49.1862,6298.0
49.2197,6045.0
49.2531,6376.0
49.2865,6129.0
49.3199,6277.0
49.3533,6181.0
49.3868,6198.0
49.4202,6254.0
49.4536,6176.0
49.487,6241.0
49.5205,6232.0
49.5539,6198.0
49.5873,6313.0
49.6207,6254.0
49.6541,6292.0
49.6876,6439.0
49.721,6156.0
49.7544,6347.0
49.7878,6264.0
49.8213,6313.0
49.8547,6458.0
49.8881,6315.0
49.9215,6476.0
49.9549,6590.0
49.9884,6590.0
50.0218,6926.0
50.0552,7184.0
50.0886,7530.0
50.1221,7411.0
50.1555,7678.0
50.1889,7806.0
50.2223,7558.0
50.2558,7229.0
50.2892,7190.0
50.3226,7007.0
50.356,6793.0
50.3894,6665.0
50.4229,6388.0
50.4563,6321.0
50.4897,6324.0
50.5231,6287.0
50.5566,6301.0
50.59,6257.0
50.6234,6273.0
50.6568,6229.0
50.6902,6245.0
50.7237,6302.0
50.7571,6365.0
50.7905,6327.0
50.8239,6167.0
50.8574,6154.0
50.8908,6396.0
50.9242,6278.0
50.9576,6129.0
50.991,6304.0
51.0245,6285.0
51.0579,6184.0
51.0913,6319.0
51.1247,6026.0
51.1582,6270.0
51.1916,6153.0
51.225,6143.0
51.2584,6109.0
51.2919,6196.0
51.3253,6136.0
51.3587,6112.0
51.3921,6217.0
51.4255,6098.0
51.459,6324.0
51.4924,6237.0
51.5258,6099.0
51.5592,6193.0
51.5927,6057.0
51.6261,6116.0
51.6595,6092.0
51.6929,6137.0
51.7263,6261.0
51.7598,6181.0
51.7932,6212.0
51.8266,6178.0
51.86,6068.0
51.8935,6149.0
51.9269,6169.0
51.9603,6034.0
51.9937,6227.0
52.0271,6322.0
52.0606,6237.0
52.094,6121.0
52.1274,6280.0
52.1608,6285.0
52.1943,6152.0
52.2277,6262.0
52.2611,6205.0
52.2945,6082.0
52.3279,6259.0
52.3614,6202.0
52.3948,6140.0
52.4282,6165.0
52.4616,6102.0
52.4951,6086.0
52.5285,6193.0
52.5619,6043.0
52.5953,6058.0
52.6288,6229.0
52.6622,6166.0
52.6956,6130.0
52.729,6003.0
52.7624,6061.0
52.7959,6275.0
52.8293,6190.0
52.8627,6257.0
52.8961,6291.0
52.9296,6129.0
52.963,6218.0
52.9964,6107.0
53.0298,6197.0
53.0632,6210.0
53.0967,6229.0
53.1301,6218.0
53.1635,6161.0
53.1969,6149.0
53.2304,6107.0
53.2638,5958.0
53.2972,6065.0
53.3306,6088.0
53.364,6161.0
53.3975,6287.0
53.4309,6166.0
53.4643,6118.0
53.4977,6386.0
53.5312,6155.0
53.5646,6187.0
53.598,6106.0
53.6314,6170.0
53.6649,6247.0
53.6983,6192.0
53.7317,6357.0
53.7651,6148.0
53.7985,6124.0
53.832,6087.0
53.8654,6144.0
53.8988,6154.0
53.9322,6096.0
53.9657,6122.0
53.9991,6096.0
54.0325,6101.0
54.0659,6249.0
54.0993,6185.0
54.1328,6182.0
54.1662,6227.0
54.1996,6310.0
54.233,6384.0
54.2665,6146.0
54.2999,6213.0
54.3333,6176.0
54.3667,6073.0
54.4001,6227.0
54.4336,6284.0
54.467,6309.0
54.5004,6172.0
54.5338,6147.0
54.5673,6206.0
54.6007,6207.0
54.6341,6290.0
54.6675,6219.0
54.701,6270.0
54.7344,6292.0
54.7678,6378.0
54.8012,6286.0
54.8346,6265.0
54.8681,6178.0
54.9015,6233.0
54.9349,6348.0
54.9683,6445.0
55.0018,6149.0
55.0352,6270.0
55.0686,6331.0
55.102,6511.0
55.1354,6555.0
55.1689,6476.0
55.2023,6626.0
55.2357,6820.0
55.2691,6997.0
55.3026,7161.0
55.336,7396.0
55.3694,7480.0
55.4028,7848.0
55.4362,7860.0
55.4697,7743.0
55.5031,7518.0
55.5365,7349.0
55.5699,7343.0
55.6034,7112.0
55.6368,6874.0
55.6702,6545.0
55.7036,6759.0
55.737,6513.0
55.7705,6404.0
55.8039,6449.0
55.8373,6351.0
55.8707,6287.0
55.9042,6332.0
55.9376,6225.0
55.971,6244.0
56.0044,6223.0
56.0379,6370.0
56.0713,6304.0
56.1047,6285.0
56.1381,6301.0
56.1715,6179.0
56.205,6246.0
56.2384,6251.0
56.2718,6244.0
56.3052,6253.0
56.3387,6192.0
56.3721,6256.0
56.4055,6248.0
56.4389,6091.0
56.4723,6158.0
56.5058,6355.0
56.5392,6216.0
56.5726,6038.0
56.606,6248.0
56.6395,6096.0
56.6729,6201.0
56.7063,6335.0
56.7397,6206.0
56.7731,6194.0
56.8066,6349.0
56.84,6223.0
56.8734,6234.0
56.9068,6133.0
56.9403,6234.0
56.9737,6088.0
57.0071,6148.0
57.0405,6286.0
57.074,6282.0
57.1074,6284.0
57.1408,6225.0
57.1742,6170.0
57.2076,6266.0
57.2411,6124.0
57.2745,6234.0
57.3079,6290.0
57.3413,6147.0
57.3748,6398.0
57.4082,6255.0
57.4416,6430.0
57.475,6379.0
57.5084,6454.0
57.5419,6506.0
57.5753,6522.0
57.6087,6719.0
57.6421,6724.0
57.6756,6666.0
57.709,6778.0
57.7424,6772.0
57.7758,6757.0
57.8092,6524.0
57.8427,6602.0
57.8761,6372.0
57.9095,6407.0
57.9429,6463.0
57.9764,6323.0
58.0098,6297.0
58.0432,6264.0
58.0766,6102.0
58.11,6201.0
58.1435,6194.0
58.1769,6149.0
58.2103,6282.0
58.2437,6216.0
58.2772,6152.0
58.3106,6243.0
58.344,6085.0
58.3774,6134.0
58.4109,6254.0
58.4443,6210.0
58.4777,6202.0
58.5111,6230.0
58.5445,6221.0
58.578,6082.0
58.6114,6151.0
58.6448,6144.0
58.6782,6080.0
58.7117,6176.0
58.7451,6233.0
58.7785,6231.0
58.8119,6085.0
58.8453,6240.0
58.8788,6054.0
58.9122,6268.0
58.9456,5970.0
58.979,6121.0
59.0125,6149.0
59.0459,6061.0
59.0793,6055.0
59.1127,6106.0
59.1461,6001.0
59.1796,6182.0
59.213,6209.0
59.2464,6249.0
59.2798,6169.0
59.3133,6188.0
59.3467,6202.0
59.3801,6203.0
59.4135,6274.0
59.447,6159.0
59.4804,6158.0
59.5138,6069.0
59.5472,6155.0
59.5806,6121.0
59.6141,6172.0
59.6475,6183.0
59.6809,6282.0
59.7143,6172.0
59.7478,6070.0
59.7812,6355.0
59.8146,6384.0
59.848,6356.0
59.8814,6300.0
59.9149,6392.0
59.9483,6306.0
59.9817,6262.0
60.0151,6263.0
60.0486,6194.0
60.082,6136.0
60.1154,6134.0
60.1488,6156.0
60.1822,6040.0
60.2157,6152.0
60.2491,6207.0
60.2825,6037.0
60.3159,6255.0
60.3494,6176.0
60.3828,6203.0
60.4162,6084.0
60.4496,6270.0
60.483,6104.0
60.5165,6061.0
60.5499,6194.0
60.5833,6048.0
60.6167,6149.0
60.6502,6104.0
60.6836,6186.0
60.717,6164.0
60.7504,6175.0
60.7839,6115.0
60.8173,6064.0
60.8507,6218.0
60.8841,6105.0
60.9175,6164.0
60.951,6230.0
60.9844,6064.0
61.0178,6188.0
61.0512,6118.0
61.0847,6205.0
61.1181,6277.0
61.1515,6072.0
61.1849,6071.0
61.2183,6180.0
61.2518,6221.0
61.2852,6112.0
61.3186,6167.0
61.352,6010.0
61.3855,6029.0
61.4189,6086.0
61.4523,6228.0
61.4857,6179.0
61.5191,6168.0
61.5526,6069.0
61.586,6124.0
61.6194,5899.0
61.6528,6029.0
61.6863,6066.0
61.7197,6179.0
61.7531,6023.0
61.7865,6216.0
61.82,6133.0
61.8534,6086.0
61.8868,6198.0
61.9202,6190.0
61.9536,6164.0
61.9871,6081.0
62.0205,6045.0
62.0539,6103.0
62.0873,5994.0
62.1208,5952.0
62.1542,6099.0
62.1876,6037.0
62.221,6133.0
62.2544,6134.0
62.2879,6148.0
62.3213,6247.0
62.3547,6239.0
62.3881,6255.0
62.4216,6026.0
62.455,6255.0
62.4884,6077.0
62.5218,6201.0
62.5552,6108.0
62.5887,6185.0
62.6221,6325.0
62.6555,6238.0
62.6889,6118.0
62.7224,6199.0
62.7558,6349.0
62.7892,6213.0
62.8226,6149.0
62.856,6258.0
62.8895,6342.0
62.9229,6415.0
62.9563,6378.0
62.9897,6521.0
63.0232,6572.0
63.0566,6466.0
63.09,6490.0
63.1234,6500.0
63.1569,6361.0
63.1903,6411.0
63.2237,6388.0
63.2571,6370.0
63.2905,6329.0
63.324,6225.0
63.3574,6332.0
63.3908,6210.0
63.4242,6380.0
63.4577,6248.0
63.4911,6281.0
63.5245,6128.0
63.5579,6186.0
63.5913,6230.0
63.6248,6339.0
63.6582,6211.0
63.6916,6122.0
63.725,6206.0
63.7585,6232.0
63.7919,6178.0
63.8253,6420.0
63.8587,6111.0
63.8921,6243.0
63.9256,6352.0
63.959,6275.0
63.9924,6372.0
64.0258,6386.0
64.0593,6416.0
64.0927,6485.0
64.1261,6495.0
64.1595,6381.0
64.193,6450.0
64.2264,6535.0
64.2598,6486.0
64.2932,6177.0
64.3266,6376.0
64.3601,6431.0
64.3935,6211.0
64.4269,6305.0
64.4603,6205.0
64.4938,6111.0
64.5272,6211.0
64.5606,6113.0
64.594,6144.0
64.6274,6062.0
64.6609,6119.0
64.6943,6087.0
64.7277,5962.0
64.7611,6168.0
64.7946,6153.0
64.828,6271.0
64.8614,6120.0
64.8948,6108.0
64.9282,6260.0
64.9617,6185.0
64.9951,6125.0
65.0285,6127.0
65.0619,6175.0
65.0954,6141.0
65.1288,6249.0
65.1622,6027.0
65.1956,6187.0
65.229,5983.0
65.2625,5881.0
65.2959,6130.0
65.3293,6163.0
65.3627,6151.0
65.3962,6158.0
65.4296,6066.0
65.463,6049.0
65.4964,6055.0
65.5299,6069.0
65.5633,5962.0
65.5967,6024.0
65.6301,6184.0
65.6635,6135.0
65.697,5964.0
65.7304,6046.0
65.7638,6062.0
65.7972,5981.0
65.8307,6130.0
65.8641,6133.0
65.8975,6103.0
65.9309,6168.0
65.9643,5790.0
65.9978,6100.0
66.0312,5930.0
66.0646,6183.0
66.098,6102.0
66.1315,6069.0
66.1649,6158.0
66.1983,6175.0
66.2317,6069.0
66.2651,6175.0
66.2986,6056.0
66.332,6117.0
66.3654,6185.0
66.3988,6217.0
66.4323,6162.0
66.4657,6034.0
66.4991,6128.0
66.5325,6226.0
66.566,6029.0
66.5994,6192.0
66.6328,6213.0
66.6662,6088.0
66.6996,6231.0
66.7331,6052.0
66.7665,6151.0
66.7999,6001.0
66.8333,6064.0
66.8668,6033.0
66.9002,6117.0
66.9336,6221.0
66.967,6065.0
67.0004,6114.0
67.0339,6101.0
67.0673,6156.0
67.1007,6229.0
67.1341,6114.0
67.1676,6093.0
67.201,5982.0
67.2344,6093.0
67.2678,6098.0
67.3012,6082.0
67.3347,6070.0
67.3681,6187.0
67.4015,6070.0
67.4349,6128.0
67.4684,6144.0
67.5018,5959.0
67.5352,6105.0
67.5686,6008.0
67.602,6044.0
67.6355,5955.0
67.6689,6028.0
67.7023,6083.0
67.7357,6073.0
67.7692,5959.0
67.8026,6051.0
67.836,6132.0
67.8694,6081.0
67.9029,6151.0
67.9363,6061.0
67.9697,6061.0
68.0031,6081.0
68.0365,6155.0
68.07,6180.0
68.1034,6096.0
68.1368,6096.0
68.1702,5888.0
68.2037,6092.0
68.2371,6021.0
68.2705,6106.0
68.3039,5939.0
68.3373,6041.0
68.3708,6166.0
68.4042,6120.0
68.4376,6099.0
68.471,5978.0
68.5045,6234.0
68.5379,6198.0
68.5713,6131.0
68.6047,6002.0
68.6381,6085.0
68.6716,6076.0
68.705,6122.0
68.7384,6097.0
68.7718,6088.0
68.8053,6154.0
68.8387,6081.0
68.8721,6098.0
68.9055,6180.0
68.939,6165.0
68.9724,6114.0
69.0058,6125.0
69.0392,6276.0
69.0726,6226.0
69.1061,6098.0
69.1395,6098.0
69.1729,6088.0
69.2063,6137.0
69.2398,6025.0
69.2732,5974.0
69.3066,5980.0
69.34,6010.0
69.3734,6175.0
69.4069,6002.0
69.4403,6122.0
69.4737,6194.0
69.5071,6164.0
69.5406,6108.0
69.574,6244.0
69.6074,6041.0
69.6408,6158.0
69.6742,5960.0
69.7077,6131.0
69.7411,6006.0
69.7745,6145.0
69.8079,6071.0
69.8414,6006.0
69.8748,6115.0
69.9082,5966.0
69.9416,6128.0
69.975,6117.0
69.9918,5956.0