File: herald_visualization/Delia_Scripts/CoF3/240827-CoF3_1to1_KS6Lgraphite-100min_milled-20-70deg_40min.csv
2Theta,Intensity
20.0084,7218.0
20.0418,7181.0
20.0752,7285.0
20.1086,7411.0
20.142,7230.0
20.1755,7140.0
20.2089,7130.0
20.2423,7232.0
20.2757,7065.0
20.3092,7081.0
20.3426,7188.0
20.376,7087.0
20.4094,7066.0
20.4428,7049.0
20.4763,7028.0
20.5097,7082.0
20.5431,7191.0
20.5765,7103.0
20.61,7058.0
20.6434,7064.0
20.6768,7042.0
20.7102,7109.0
20.7437,6965.0
20.7771,7141.0
20.8105,7292.0
20.8439,7046.0
20.8773,7012.0
20.9108,6997.0
20.9442,7162.0
20.9776,6978.0
21.011,6972.0
21.0445,6784.0
21.0779,6837.0
21.1113,6876.0
21.1447,6862.0
21.1781,6907.0
21.2116,6867.0
21.245,6790.0
21.2784,7077.0
21.3118,6873.0
21.3453,6929.0
21.3787,6868.0
21.4121,6888.0
21.4455,6854.0
21.4789,6758.0
21.5124,6673.0
21.5458,6806.0
21.5792,6746.0
21.6126,6841.0
21.6461,6844.0
21.6795,6756.0
21.7129,6748.0
21.7463,6749.0
21.7798,6652.0
21.8132,6742.0
21.8466,6602.0
21.88,6712.0
21.9134,6651.0
21.9469,6649.0
21.9803,6755.0
22.0137,6658.0
22.0471,6528.0
22.0806,6607.0
22.114,6634.0
22.1474,6506.0
22.1808,6511.0
22.2142,6592.0
22.2477,6585.0
22.2811,6506.0
22.3145,6419.0
22.3479,6674.0
22.3814,6630.0
22.4148,6568.0
22.4482,6436.0
22.4816,6427.0
22.515,6498.0
22.5485,6710.0
22.5819,6604.0
22.6153,6556.0
22.6487,6434.0
22.6822,6443.0
22.7156,6528.0
22.749,6405.0
22.7824,6353.0
22.8158,6477.0
22.8493,6365.0
22.8827,6496.0
22.9161,6334.0
22.9495,6364.0
22.983,6359.0
23.0164,6441.0
23.0498,6256.0
23.0832,6364.0
23.1167,6454.0
23.1501,6445.0
23.1835,6335.0
23.2169,6430.0
23.2503,6436.0
23.2838,6343.0
23.3172,6316.0
23.3506,6193.0
23.384,6419.0
23.4175,6348.0
23.4509,6371.0
23.4843,6272.0
23.5177,6160.0
23.5511,6357.0
23.5846,6376.0
23.618,6292.0
23.6514,6281.0
23.6848,6154.0
23.7183,6221.0
23.7517,6176.0
23.7851,6289.0
23.8185,6312.0
23.8519,6294.0
23.8854,6132.0
23.9188,6294.0
23.9522,6250.0
23.9856,6155.0
24.0191,6417.0
24.0525,6401.0
24.0859,6324.0
24.1193,6419.0
24.1528,6444.0
24.1862,6279.0
24.2196,6428.0
24.253,6693.0
24.2864,6403.0
24.3199,6635.0
24.3533,6496.0
24.3867,6455.0
24.4201,6571.0
24.4536,6701.0
24.487,6749.0
24.5204,6572.0
24.5538,6558.0
24.5872,6505.0
24.6207,6529.0
24.6541,6386.0
24.6875,6322.0
24.7209,6565.0
24.7544,6274.0
24.7878,6280.0
24.8212,6268.0
24.8546,6228.0
24.888,6259.0
24.9215,6199.0
24.9549,6216.0
24.9883,6306.0
25.0217,6228.0
25.0552,6286.0
25.0886,6129.0
25.122,6171.0
25.1554,6132.0
25.1888,6195.0
25.2223,6167.0
25.2557,6215.0
25.2891,6014.0
25.3225,6238.0
25.356,6003.0
25.3894,6271.0
25.4228,6298.0
25.4562,6193.0
25.4897,6175.0
25.5231,6238.0
25.5565,6256.0
25.5899,6272.0
25.6233,6240.0
25.6568,6304.0
25.6902,6243.0
25.7236,6327.0
25.757,6108.0
25.7905,6187.0
25.8239,6117.0
25.8573,6253.0
25.8907,6035.0
25.9241,6296.0
25.9576,6221.0
25.991,6205.0
26.0244,6454.0
26.0578,6213.0
26.0913,6263.0
26.1247,6347.0
26.1581,6396.0
26.1915,6326.0
26.2249,6318.0
26.2584,6316.0
26.2918,6434.0
26.3252,6370.0
26.3586,6468.0
26.3921,6580.0
26.4255,6516.0
26.4589,6561.0
26.4923,6684.0
26.5258,6626.0
26.5592,6866.0
26.5926,6695.0
26.626,6847.0
26.6594,6950.0
26.6929,6874.0
26.7263,7090.0
26.7597,7262.0
26.7931,7436.0
26.8266,7418.0
26.86,7287.0
26.8934,7506.0
26.9268,7318.0
26.9602,7354.0
26.9937,7078.0
27.0271,7238.0
27.0605,6942.0
27.0939,6711.0
27.1274,6643.0
27.1608,6794.0
27.1942,6620.0
27.2276,6797.0
27.261,6524.0
27.2945,6476.0
27.3279,6400.0
27.3613,6369.0
27.3947,6272.0
27.4282,6437.0
27.4616,6372.0
27.495,6301.0
27.5284,6145.0
27.5618,6137.0
27.5953,6379.0
27.6287,6222.0
27.6621,6251.0
27.6955,6196.0
27.729,6192.0
27.7624,6100.0
27.7958,6223.0
27.8292,6132.0
27.8627,6013.0
27.8961,6167.0
27.9295,6176.0
27.9629,6226.0
27.9963,6234.0
28.0298,6128.0
28.0632,6081.0
28.0966,6129.0
28.13,6035.0
28.1635,6057.0
28.1969,6146.0
28.2303,5868.0
28.2637,6125.0
28.2971,6222.0
28.3306,6164.0
28.364,6149.0
28.3974,5975.0
28.4308,6179.0
28.4643,5958.0
28.4977,5957.0
28.5311,5974.0
28.5645,6026.0
28.5979,5984.0
28.6314,6058.0
28.6648,6084.0
28.6982,6139.0
28.7316,6015.0
28.7651,6061.0
28.7985,6024.0
28.8319,6140.0
28.8653,5982.0
28.8988,6149.0
28.9322,6026.0
28.9656,6139.0
28.999,6078.0
29.0324,6024.0
29.0659,5894.0
29.0993,6035.0
29.1327,6025.0
29.1661,5946.0
29.1996,5942.0
29.233,6067.0
29.2664,5997.0
29.2998,5882.0
29.3332,6055.0
29.3667,5990.0
29.4001,6151.0
29.4335,5836.0
29.4669,6008.0
29.5004,5957.0
29.5338,5840.0
29.5672,6082.0
29.6006,6057.0
29.634,6074.0
29.6675,6030.0
29.7009,6014.0
29.7343,5907.0
29.7677,5855.0
29.8012,5966.0
29.8346,6039.0
29.868,6093.0
29.9014,5782.0
29.9348,5897.0
29.9683,5901.0
30.0017,5936.0
30.0351,5846.0
30.0685,5902.0
30.102,5876.0
30.1354,6098.0
30.1688,5894.0
30.2022,5888.0
30.2357,6084.0
30.2691,5976.0
30.3025,5897.0
30.3359,5995.0
30.3693,5917.0
30.4028,5870.0
30.4362,5928.0
30.4696,5917.0
30.503,5838.0
30.5365,5935.0
30.5699,6092.0
30.6033,5856.0
30.6367,5915.0
30.6701,5863.0
30.7036,5818.0
30.737,5880.0
30.7704,5876.0
30.8038,5871.0
30.8373,5909.0
30.8707,5826.0
30.9041,5823.0
30.9375,5901.0
30.9709,5838.0
31.0044,5895.0
31.0378,5892.0
31.0712,5975.0
31.1046,5908.0
31.1381,5892.0
31.1715,5932.0
31.2049,5882.0
31.2383,5886.0
31.2718,5887.0
31.3052,5855.0
31.3386,5757.0
31.372,5945.0
31.4054,5814.0
31.4389,5771.0
31.4723,5792.0
31.5057,5868.0
31.5391,6083.0
31.5726,5815.0
31.606,5952.0
31.6394,5792.0
31.6728,5798.0
31.7062,5677.0
31.7397,5756.0
31.7731,5800.0
31.8065,5659.0
31.8399,5891.0
31.8734,5905.0
31.9068,5944.0
31.9402,5787.0
31.9736,5800.0
32.007,5860.0
32.0405,6010.0
32.0739,5797.0
32.1073,5810.0
32.1407,5800.0
32.1742,5774.0
32.2076,5833.0
32.241,5911.0
32.2744,5805.0
32.3078,5942.0
32.3413,5999.0
32.3747,5901.0
32.4081,5695.0
32.4415,5820.0
32.475,5787.0
32.5084,5676.0
32.5418,5758.0
32.5752,5803.0
32.6087,5806.0
32.6421,5822.0
32.6755,5685.0
32.7089,5850.0
32.7423,5964.0
32.7758,5972.0
32.8092,5852.0
32.8426,5960.0
32.876,5885.0
32.9095,5851.0
32.9429,5925.0
32.9763,5704.0
33.0097,5865.0
33.0431,5762.0
33.0766,5848.0
33.11,5669.0
33.1434,5876.0
33.1768,5908.0
33.2103,5766.0
33.2437,5825.0
33.2771,5965.0
33.3105,5934.0
33.3439,5919.0
33.3774,5804.0
33.4108,5863.0
33.4442,5889.0
33.4776,5959.0
33.5111,5848.0
33.5445,6103.0
33.5779,6055.0
33.6113,6083.0
33.6448,6281.0
33.6782,5936.0
33.7116,6043.0
33.745,6112.0
33.7784,6326.0
33.8119,6149.0
33.8453,6187.0
33.8787,6447.0
33.9121,6495.0
33.9456,6418.0
33.979,6498.0
34.0124,6402.0
34.0458,6401.0
34.0792,6324.0
34.1127,6431.0
34.1461,6245.0
34.1795,6367.0
34.2129,6266.0
34.2464,6196.0
34.2798,6174.0
34.3132,6164.0
34.3466,6185.0
34.38,6009.0
34.4135,6116.0
34.4469,6017.0
34.4803,6026.0
34.5137,6041.0
34.5472,6058.0
34.5806,5930.0
34.614,5892.0
34.6474,5941.0
34.6808,5900.0
34.7143,5895.0
34.7477,5976.0
34.7811,5903.0
34.8145,5864.0
34.848,5882.0
34.8814,5879.0
34.9148,5829.0
34.9482,5808.0
34.9817,5883.0
35.0151,5825.0
35.0485,5815.0
35.0819,5694.0
35.1153,5746.0
35.1488,5684.0
35.1822,5794.0
35.2156,5803.0
35.249,5763.0
35.2825,5714.0
35.3159,5753.0
35.3493,5887.0
35.3827,5790.0
35.4161,5795.0
35.4496,5799.0
35.483,5700.0
35.5164,5747.0
35.5498,5826.0
35.5833,5665.0
35.6167,5750.0
35.6501,5695.0
35.6835,5759.0
35.7169,5834.0
35.7504,5850.0
35.7838,5653.0
35.8172,5980.0
35.8506,5874.0
35.8841,5621.0
35.9175,5716.0
35.9509,5605.0
35.9843,5777.0
36.0178,5732.0
36.0512,5771.0
36.0846,5714.0
36.118,5769.0
36.1514,5798.0
36.1849,5618.0
36.2183,5691.0
36.2517,5677.0
36.2851,5671.0
36.3186,5750.0
36.352,5800.0
36.3854,5831.0
36.4188,5646.0
36.4522,5696.0
36.4857,5714.0
36.5191,5653.0
36.5525,5659.0
36.5859,5753.0
36.6194,5729.0
36.6528,5676.0
36.6862,5742.0
36.7196,5741.0
36.753,5785.0
36.7865,5797.0
36.8199,5664.0
36.8533,5776.0
36.8867,5845.0
36.9202,5779.0
36.9536,5726.0
36.987,5652.0
37.0204,5731.0
37.0538,5846.0
37.0873,5824.0
37.1207,5679.0
37.1541,5512.0
37.1875,5695.0
37.221,5665.0
37.2544,5771.0
37.2878,5680.0
37.3212,5637.0
37.3547,5741.0
37.3881,5649.0
37.4215,5616.0
37.4549,5619.0
37.4883,5681.0
37.5218,5694.0
37.5552,5706.0
37.5886,5729.0
37.622,5836.0
37.6555,5814.0
37.6889,5661.0
37.7223,5802.0
37.7557,5774.0
37.7891,5745.0
37.8226,5767.0
37.856,5836.0
37.8894,5646.0
37.9228,5741.0
37.9563,5714.0
37.9897,5662.0
38.0231,5687.0
38.0565,5835.0
38.0899,5756.0
38.1234,5678.0
38.1568,5845.0
38.1902,5909.0
38.2236,5928.0
38.2571,5857.0
38.2905,5837.0
38.3239,5674.0
38.3573,5795.0
38.3908,5932.0
38.4242,5767.0
38.4576,5819.0
38.491,5839.0
38.5244,5857.0
38.5579,5790.0
38.5913,5680.0
38.6247,5727.0
38.6581,5896.0
38.6916,5815.0
38.725,5903.0
38.7584,5810.0
38.7918,5706.0
38.8252,5946.0
38.8587,5839.0
38.8921,5884.0
38.9255,5894.0
38.9589,5987.0
38.9924,5962.0
39.0258,6029.0
39.0592,5790.0
39.0926,5935.0
39.126,5865.0
39.1595,6191.0
39.1929,6017.0
39.2263,6058.0
39.2597,5968.0
39.2932,6094.0
39.3266,5877.0
39.36,5902.0
39.3934,6119.0
39.4269,5988.0
39.4603,5830.0
39.4937,5954.0
39.5271,5828.0
39.5605,5811.0
39.594,5825.0
39.6274,5848.0
39.6608,5877.0
39.6942,5882.0
39.7277,5804.0
39.7611,5580.0
39.7945,5652.0
39.8279,5674.0
39.8613,5730.0
39.8948,5724.0
39.9282,5825.0
39.9616,5763.0
39.995,5644.0
40.0285,5649.0
40.0619,5831.0
40.0953,5669.0
40.1287,5804.0
40.1621,5731.0
40.1956,5728.0
40.229,5814.0
40.2624,5793.0
40.2958,5681.0
40.3293,5768.0
40.3627,5635.0
40.3961,5699.0
40.4295,5713.0
40.4629,5725.0
40.4964,5645.0
40.5298,5704.0
40.5632,5659.0
40.5966,5595.0
40.6301,5691.0
40.6635,5690.0
40.6969,5704.0
40.7303,5661.0
40.7638,5732.0
40.7972,5732.0
40.8306,5642.0
40.864,5886.0
40.8974,5732.0
40.9309,5766.0
40.9643,5673.0
40.9977,5814.0
41.0311,5891.0
41.0646,5745.0
41.098,5915.0
41.1314,5726.0
41.1648,5701.0
41.1982,5550.0
41.2317,5620.0
41.2651,5732.0
41.2985,5767.0
41.3319,5787.0
41.3654,5862.0
41.3988,5754.0
41.4322,5712.0
41.4656,5759.0
41.499,5604.0
41.5325,5654.0
41.5659,5652.0
41.5993,5653.0
41.6327,5797.0
41.6662,5677.0
41.6996,5626.0
41.733,5663.0
41.7664,5779.0
41.7999,5648.0
41.8333,5802.0
41.8667,5748.0
41.9001,5669.0
41.9335,5669.0
41.967,5590.0
42.0004,5682.0
42.0338,5721.0
42.0672,5692.0
42.1007,5657.0
42.1341,5681.0
42.1675,5609.0
42.2009,5598.0
42.2343,5680.0
42.2678,5681.0
42.3012,5567.0
42.3346,5897.0
42.368,5725.0
42.4015,5763.0
42.4349,5721.0
42.4683,5746.0
42.5017,5734.0
42.5351,5527.0
42.5686,5734.0
42.602,5726.0
42.6354,5779.0
42.6688,5653.0
42.7023,5783.0
42.7357,5613.0
42.7691,5793.0
42.8025,5745.0
42.8359,5745.0
42.8694,5797.0
42.9028,5774.0
42.9362,5810.0
42.9696,5776.0
43.0031,5724.0
43.0365,5682.0
43.0699,5741.0
43.1033,5747.0
43.1368,5722.0
43.1702,5719.0
43.2036,5834.0
43.237,5821.0
43.2704,5748.0
43.3039,5699.0
43.3373,5856.0
43.3707,5745.0
43.4041,5815.0
43.4376,5813.0
43.471,5682.0
43.5044,5700.0
43.5378,5673.0
43.5712,5803.0
43.6047,5730.0
43.6381,5692.0
43.6715,5552.0
43.7049,5659.0
43.7384,5659.0
43.7718,5613.0
43.8052,5641.0
43.8386,5617.0
43.872,5665.0
43.9055,5647.0
43.9389,5861.0
43.9723,5713.0
44.0057,5548.0
44.0392,5654.0
44.0726,5657.0
44.106,5532.0
44.1394,5735.0
44.1729,5633.0
44.2063,5611.0
44.2397,5607.0
44.2731,5724.0
44.3065,5610.0
44.34,5675.0
44.3734,5743.0
44.4068,5645.0
44.4402,5645.0
44.4737,5835.0
44.5071,5664.0
44.5405,5642.0
44.5739,5667.0
44.6073,5744.0
44.6408,5588.0
44.6742,5624.0
44.7076,5612.0
44.741,5620.0
44.7745,5668.0
44.8079,5573.0
44.8413,5764.0
44.8747,5632.0
44.9081,5671.0
44.9416,5633.0
44.975,5662.0
45.0084,5620.0
45.0418,5717.0
45.0753,5690.0
45.1087,5694.0
45.1421,5598.0
45.1755,5690.0
45.2089,5570.0
45.2424,5669.0
45.2758,5567.0
45.3092,5604.0
45.3426,5607.0
45.3761,5610.0
45.4095,5481.0
45.4429,5669.0
45.4763,5484.0
45.5098,5638.0
45.5432,5684.0
45.5766,5711.0
45.61,5659.0
45.6434,5626.0
45.6769,5689.0
45.7103,5805.0
45.7437,5539.0
45.7771,5650.0
45.8106,5618.0
45.844,5720.0
45.8774,5697.0
45.9108,5596.0
45.9442,5730.0
45.9777,5671.0
46.0111,5584.0
46.0445,5822.0
46.0779,5514.0
46.1114,5626.0
46.1448,5647.0
46.1782,5705.0
46.2116,5634.0
46.245,5747.0
46.2785,5867.0
46.3119,5768.0
46.3453,5651.0
46.3787,5507.0
46.4122,5669.0
46.4456,5748.0
46.479,5762.0
46.5124,5581.0
46.5459,5719.0
46.5793,5720.0
46.6127,5627.0
46.6461,5662.0
46.6795,5620.0
46.713,5717.0
46.7464,5617.0
46.7798,5690.0
46.8132,5734.0
46.8467,5694.0
46.8801,5647.0
46.9135,5676.0
46.9469,5636.0
46.9803,5703.0
47.0138,5684.0
47.0472,5824.0
47.0806,5581.0
47.114,5621.0
47.1475,5679.0
47.1809,5618.0
47.2143,5825.0
47.2477,5742.0
47.2811,5577.0
47.3146,5651.0
47.348,5606.0
47.3814,5638.0
47.4148,5571.0
47.4483,5561.0
47.4817,5668.0
47.5151,5562.0
47.5485,5692.0
47.5819,5699.0
47.6154,5734.0
47.6488,5695.0
47.6822,5604.0
47.7156,5572.0
47.7491,5802.0
47.7825,5725.0
47.8159,5561.0
47.8493,5653.0
47.8828,5497.0
47.9162,5520.0
47.9496,5610.0
47.983,5568.0
48.0164,5648.0
48.0499,5741.0
48.0833,5584.0
48.1167,5643.0
48.1501,5646.0
48.1836,5591.0
48.217,5611.0
48.2504,5506.0
48.2838,5535.0
48.3172,5662.0
48.3507,5570.0
48.3841,5571.0
48.4175,5548.0
48.4509,5646.0
48.4844,5635.0
48.5178,5719.0
48.5512,5741.0
48.5846,5584.0
48.618,5598.0
48.6515,5537.0
48.6849,5631.0
48.7183,5676.0
48.7517,5530.0
48.7852,5489.0
48.8186,5615.0
48.852,5711.0
48.8854,5601.0
48.9189,5651.0
48.9523,5584.0
48.9857,5698.0
49.0191,5590.0
49.0525,5530.0
49.086,5699.0
49.1194,5596.0
49.1528,5805.0
49.1862,5643.0
49.2197,5735.0
49.2531,5721.0
49.2865,5669.0
49.3199,5657.0
49.3533,5748.0
49.3868,5736.0
49.4202,5626.0
49.4536,5669.0
49.487,5663.0
49.5205,5669.0
49.5539,5617.0
49.5873,5684.0
49.6207,5684.0
49.6541,5775.0
49.6876,5630.0
49.721,5629.0
49.7544,5721.0
49.7878,5669.0
49.8213,5641.0
49.8547,5691.0
49.8881,5597.0
49.9215,5816.0
49.9549,5891.0
49.9884,5701.0
50.0218,5705.0
50.0552,5637.0
50.0886,5755.0
50.1221,5654.0
50.1555,5675.0
50.1889,5566.0
50.2223,5622.0
50.2558,5632.0
50.2892,5640.0
50.3226,5792.0
50.356,5824.0
50.3894,5721.0
50.4229,5557.0
50.4563,5676.0
50.4897,5614.0
50.5231,5717.0
50.5566,5747.0
50.59,5635.0
50.6234,5619.0
50.6568,5593.0
50.6902,5730.0
50.7237,5706.0
50.7571,5873.0
50.7905,5757.0
50.8239,5785.0
50.8574,5789.0
50.8908,5694.0
50.9242,5675.0
50.9576,5708.0
50.991,5736.0
51.0245,5704.0
51.0579,5736.0
51.0913,5688.0
51.1247,5748.0
51.1582,5811.0
51.1916,5676.0
51.225,5919.0
51.2584,5852.0
51.2919,5698.0
51.3253,5874.0
51.3587,5683.0
51.3921,5729.0
51.4255,5721.0
51.459,5828.0
51.4924,5784.0
51.5258,5723.0
51.5592,5792.0
51.5927,5761.0
51.6261,5886.0
51.6595,5951.0
51.6929,5870.0
51.7263,6046.0
51.7598,5935.0
51.7932,6035.0
51.8266,6111.0
51.86,6097.0
51.8935,5943.0
51.9269,6119.0
51.9603,6124.0
51.9937,6327.0
52.0271,6276.0
52.0606,6321.0
52.094,6224.0
52.1274,6429.0
52.1608,6339.0
52.1943,6310.0
52.2277,6453.0
52.2611,6321.0
52.2945,6495.0
52.3279,6326.0
52.3614,6328.0
52.3948,6219.0
52.4282,6266.0
52.4616,6161.0
52.4951,6140.0
52.5285,6127.0
52.5619,5959.0
52.5953,6093.0
52.6288,6023.0
52.6622,5964.0
52.6956,5793.0
52.729,5830.0
52.7624,5990.0
52.7959,5970.0
52.8293,5962.0
52.8627,5978.0
52.8961,5801.0
52.9296,5789.0
52.963,5759.0
52.9964,5754.0
53.0298,5801.0
53.0632,5621.0
53.0967,5851.0
53.1301,5676.0
53.1635,5986.0
53.1969,5728.0
53.2304,5892.0
53.2638,5705.0
53.2972,5756.0
53.3306,5654.0
53.364,5743.0
53.3975,5658.0
53.4309,5742.0
53.4643,5546.0
53.4977,5555.0
53.5312,5667.0
53.5646,5675.0
53.598,5764.0
53.6314,5458.0
53.6649,5748.0
53.6983,5751.0
53.7317,5896.0
53.7651,5708.0
53.7985,5725.0
53.832,5573.0
53.8654,5699.0
53.8988,5586.0
53.9322,5838.0
53.9657,5653.0
53.9991,5706.0
54.0325,5610.0
54.0659,5751.0
54.0993,5777.0
54.1328,5713.0
54.1662,5751.0
54.1996,5601.0
54.233,5720.0
54.2665,5732.0
54.2999,5716.0
54.3333,5772.0
54.3667,5794.0
54.4001,5732.0
54.4336,5689.0
54.467,5570.0
54.5004,5797.0
54.5338,5755.0
54.5673,5757.0
54.6007,5768.0
54.6341,5793.0
54.6675,5660.0
54.701,5761.0
54.7344,5799.0
54.7678,5776.0
54.8012,5757.0
54.8346,5798.0
54.8681,5907.0
54.9015,5740.0
54.9349,5815.0
54.9683,5972.0
55.0018,5775.0
55.0352,5931.0
55.0686,5966.0
55.102,5930.0
55.1354,5801.0
55.1689,5945.0
55.2023,6061.0
55.2357,6001.0
55.2691,6006.0
55.3026,6054.0
55.336,5915.0
55.3694,6018.0
55.4028,6073.0
55.4362,5908.0
55.4697,5801.0
55.5031,5867.0
55.5365,5888.0
55.5699,5803.0
55.6034,5901.0
55.6368,5854.0
55.6702,5736.0
55.7036,5775.0
55.737,5742.0
55.7705,5680.0
55.8039,5726.0
55.8373,5790.0
55.8707,5782.0
55.9042,5880.0
55.9376,5861.0
55.971,5717.0
56.0044,5802.0
56.0379,5757.0
56.0713,5834.0
56.1047,5626.0
56.1381,5581.0
56.1715,5778.0
56.205,5747.0
56.2384,5643.0
56.2718,5739.0
56.3052,5800.0
56.3387,5679.0
56.3721,5887.0
56.4055,5757.0
56.4389,5729.0
56.4723,5691.0
56.5058,5658.0
56.5392,5737.0
56.5726,5761.0
56.606,5772.0
56.6395,5572.0
56.6729,5675.0
56.7063,5776.0
56.7397,5758.0
56.7731,5736.0
56.8066,5589.0
56.84,5711.0
56.8734,5797.0
56.9068,5769.0
56.9403,5667.0
56.9737,5627.0
57.0071,5797.0
57.0405,5777.0
57.074,5746.0
57.1074,5767.0
57.1408,5722.0
57.1742,5793.0
57.2076,5754.0
57.2411,5791.0
57.2745,5660.0
57.3079,5659.0
57.3413,5879.0
57.3748,5767.0
57.4082,5711.0
57.4416,5693.0
57.475,5654.0
57.5084,5793.0
57.5419,5840.0
57.5753,5650.0
57.6087,5899.0
57.6421,5738.0
57.6756,5695.0
57.709,5705.0
57.7424,5786.0
57.7758,5957.0
57.8092,5784.0
57.8427,5856.0
57.8761,5817.0
57.9095,5814.0
57.9429,5945.0
57.9764,5838.0
58.0098,5866.0
58.0432,5781.0
58.0766,5837.0
58.11,5884.0
58.1435,5904.0
58.1769,5849.0
58.2103,5930.0
58.2437,5909.0
58.2772,5854.0
58.3106,5787.0
58.344,5860.0
58.3774,5794.0
58.4109,5804.0
58.4443,5774.0
58.4777,5685.0
58.5111,5664.0
58.5445,5791.0
58.578,5835.0
58.6114,5725.0
58.6448,5681.0
58.6782,5588.0
58.7117,5850.0
58.7451,5697.0
58.7785,5861.0
58.8119,5788.0
58.8453,5712.0
58.8788,5669.0
58.9122,5685.0
58.9456,5714.0
58.979,5808.0
59.0125,5850.0
59.0459,5798.0
59.0793,5773.0
59.1127,5774.0
59.1461,5728.0
59.1796,5710.0
59.213,5828.0
59.2464,5634.0
59.2798,5683.0
59.3133,5622.0
59.3467,5810.0
59.3801,5912.0
59.4135,5769.0
59.447,5714.0
59.4804,5835.0
59.5138,5854.0
59.5472,5676.0
59.5806,5692.0
59.6141,5611.0
59.6475,5791.0
59.6809,5640.0
59.7143,5722.0
59.7478,5853.0
59.7812,5776.0
59.8146,5735.0
59.848,5711.0
59.8814,5839.0
59.9149,5956.0
59.9483,5705.0
59.9817,5667.0
60.0151,5699.0
60.0486,5792.0
60.082,5595.0
60.1154,5810.0
60.1488,5756.0
60.1822,5685.0
60.2157,5845.0
60.2491,5691.0
60.2825,5802.0
60.3159,5602.0
60.3494,5648.0
60.3828,5781.0
60.4162,5968.0
60.4496,5757.0
60.483,5634.0
60.5165,5713.0
60.5499,5771.0
60.5833,5661.0
60.6167,5744.0
60.6502,5797.0
60.6836,5697.0
60.717,5833.0
60.7504,5845.0
60.7839,5753.0
60.8173,5671.0
60.8507,5735.0
60.8841,5704.0
60.9175,5774.0
60.951,5756.0
60.9844,5662.0
61.0178,5645.0
61.0512,5846.0
61.0847,5713.0
61.1181,5776.0
61.1515,5725.0
61.1849,5601.0
61.2183,5661.0
61.2518,5730.0
61.2852,5831.0
61.3186,5736.0
61.352,5739.0
61.3855,5732.0
61.4189,5741.0
61.4523,5735.0
61.4857,5631.0
61.5191,5705.0
61.5526,5773.0
61.586,5756.0
61.6194,5753.0
61.6528,5798.0
61.6863,5719.0
61.7197,5706.0
61.7531,5732.0
61.7865,5785.0
61.82,5828.0
61.8534,5678.0
61.8868,5711.0
61.9202,5777.0
61.9536,5874.0
61.9871,5723.0
62.0205,5792.0
62.0539,5923.0
62.0873,5873.0
62.1208,5862.0
62.1542,5825.0
62.1876,5685.0
62.221,5799.0
62.2544,5794.0
62.2879,5790.0
62.3213,5855.0
62.3547,5687.0
62.3881,5876.0
62.4216,5926.0
62.455,5801.0
62.4884,5832.0
62.5218,5826.0
62.5552,5743.0
62.5887,5840.0
62.6221,5754.0
62.6555,5746.0
62.6889,5833.0
62.7224,5982.0
62.7558,5743.0
62.7892,5824.0
62.8226,5681.0
62.856,5769.0
62.8895,5923.0
62.9229,5691.0
62.9563,5797.0
62.9897,5847.0
63.0232,5819.0
63.0566,5751.0
63.09,5610.0
63.1234,5878.0
63.1569,5687.0
63.1903,5742.0
63.2237,5669.0
63.2571,5745.0
63.2905,5995.0
63.324,5831.0
63.3574,5891.0
63.3908,5803.0
63.4242,5822.0
63.4577,5908.0
63.4911,5767.0
63.5245,5870.0
63.5579,5811.0
63.5913,5709.0
63.6248,5712.0
63.6582,5795.0
63.6916,5737.0
63.725,5808.0
63.7585,5905.0
63.7919,5813.0
63.8253,5769.0
63.8587,5689.0
63.8921,5762.0
63.9256,5773.0
63.959,5627.0
63.9924,5933.0
64.0258,5732.0
64.0593,5737.0
64.0927,5817.0
64.1261,5999.0
64.1595,5751.0
64.193,5694.0
64.2264,5834.0
64.2598,5772.0
64.2932,5825.0
64.3266,5660.0
64.3601,5634.0
64.3935,5845.0
64.4269,5828.0
64.4603,5855.0
64.4938,5793.0
64.5272,5865.0
64.5606,5814.0
64.594,5769.0
64.6274,5917.0
64.6609,5748.0
64.6943,5911.0
64.7277,5873.0
64.7611,5785.0
64.7946,5774.0
64.828,5789.0
64.8614,5836.0
64.8948,5840.0
64.9282,5777.0
64.9617,5736.0
64.9951,5809.0
65.0285,5925.0
65.0619,5874.0
65.0954,5804.0
65.1288,5831.0
65.1622,5947.0
65.1956,5896.0
65.229,5936.0
65.2625,5738.0
65.2959,5751.0
65.3293,5874.0
65.3627,5832.0
65.3962,5761.0
65.4296,5768.0
65.463,5785.0
65.4964,5814.0
65.5299,5820.0
65.5633,5893.0
65.5967,5911.0
65.6301,5793.0
65.6635,5717.0
65.697,5915.0
65.7304,5978.0
65.7638,5959.0
65.7972,5900.0
65.8307,5819.0
65.8641,5883.0
65.8975,5854.0
65.9309,5787.0
65.9643,5864.0
65.9978,5736.0
66.0312,5701.0
66.0646,5773.0
66.098,5785.0
66.1315,5912.0
66.1649,5891.0
66.1983,5877.0
66.2317,5907.0
66.2651,5962.0
66.2986,5935.0
66.332,5938.0
66.3654,5785.0
66.3988,5784.0
66.4323,5737.0
66.4657,5841.0
66.4991,6006.0
66.5325,5897.0
66.566,5861.0
66.5994,6023.0
66.6328,5916.0
66.6662,5984.0
66.6996,6008.0
66.7331,5986.0
66.7665,5949.0
66.7999,5946.0
66.8333,5909.0
66.8668,5801.0
66.9002,5905.0
66.9336,5896.0
66.967,5754.0
67.0004,6092.0
67.0339,5880.0
67.0673,5802.0
67.1007,5820.0
67.1341,5721.0
67.1676,5845.0
67.201,5829.0
67.2344,5653.0
67.2678,5709.0
67.3012,5828.0
67.3347,5878.0
67.3681,5831.0
67.4015,5850.0
67.4349,5673.0
67.4684,5747.0
67.5018,5706.0
67.5352,5567.0
67.5686,5716.0
67.602,5752.0
67.6355,5851.0
67.6689,5942.0
67.7023,5803.0
67.7357,5715.0
67.7692,5876.0
67.8026,5741.0
67.836,5804.0
67.8694,5789.0
67.9029,5662.0
67.9363,5802.0
67.9697,5819.0
68.0031,5731.0
68.0365,5795.0
68.07,5729.0
68.1034,5795.0
68.1368,5794.0
68.1702,5589.0
68.2037,5740.0
68.2371,5815.0
68.2705,5771.0
68.3039,5851.0
68.3373,5711.0
68.3708,5627.0
68.4042,5790.0
68.4376,5818.0
68.471,5705.0
68.5045,5855.0
68.5379,5648.0
68.5713,5795.0
68.6047,5682.0
68.6381,5787.0
68.6716,5848.0
68.705,5794.0
68.7384,5683.0
68.7718,5823.0
68.8053,5894.0
68.8387,5696.0
68.8721,5725.0
68.9055,5770.0
68.939,5741.0
68.9724,5787.0
69.0058,5808.0
69.0392,5612.0
69.0726,5690.0
69.1061,5886.0
69.1395,5791.0
69.1729,5618.0
69.2063,5936.0
69.2398,5782.0
69.2732,5844.0
69.3066,5691.0
69.34,5894.0
69.3734,5800.0
69.4069,5838.0
69.4403,5772.0
69.4737,5677.0
69.5071,5801.0
69.5406,5658.0
69.574,5687.0
69.6074,5806.0
69.6408,5710.0
69.6742,5799.0
69.7077,5826.0
69.7411,5946.0
69.7745,5734.0
69.8079,5770.0
69.8414,5866.0
69.8748,5773.0
69.9082,5595.0
69.9416,5770.0
69.975,5732.0
69.9918,5822.0