File: herald_visualization/Delia_Scripts/CoF3/CoF3_iback_100mins.csv
2Theta,Intensity
20.0084,7218.0
20.0424,7205.41
20.0764,7192.82
20.1104,7180.23
20.1444,7167.64
20.1784,7155.05
20.2124,7142.47
20.2464,7129.88
20.2804,7117.13
20.3144,7104.22
20.3484,7091.32
20.3824,7078.41
20.4164,7065.502
20.4504,7052.6
20.4844,7039.69
20.5184,7026.78
20.5524,7013.88
20.5864,7000.969
20.6204,6988.06
20.6544,6975.16
20.6884,6962.25
20.7224,6949.34
20.7564,6936.436
20.7904,6923.37
20.8244,6910.15
20.8584,6896.92
20.8924,6883.7
20.9264,6870.47
20.9604,6857.25
20.9944,6844.03
21.0284,6830.8
21.0624,6823.59
21.0964,6816.39
21.1304,6809.18
21.1644,6801.97
21.1984,6794.76
21.2324,6787.55
21.2664,6780.346
21.3004,6773
21.3344,6765.51
21.3684,6758.03
21.4024,6750.54
21.4364,6743.06
21.4704,6735.57
21.5044,6728.09
21.5384,6720.6
21.5724,6713.119
21.6064,6705.634
21.6404,6698.15
21.6744,6690.66
21.7084,6683.18
21.7424,6675.69
21.7764,6668.21
21.8104,6660.59
21.8444,6652.823
21.8784,6645.06
21.9124,6637.3
21.9464,6629.54
21.9804,6621.77
22.0144,6614.01
22.0484,6606.25
22.0824,6598.15
22.1164,6590.04
22.1504,6581.94
22.1844,6573.83
22.2184,6565.73
22.2524,6557.62
22.2864,6549.52
22.3204,6541.472
22.3544,6533.49
22.3884,6525.51
22.4224,6517.53
22.4564,6509.545
22.4904,6501.56
22.5244,6493.58
22.5584,6485.6
22.5924,6477.38
22.6264,6469.17
22.6604,6460.95
22.6944,6452.74
22.7284,6444.52
22.7624,6436.31
22.7964,6428.09
22.8304,6419.88
22.8644,6411.66
22.8984,6403.45
22.9324,6395.23
22.9664,6387.018
23.0004,6378.8
23.0344,6370.59
23.0684,6362.37
23.1024,6353.924
23.1364,6345.48
23.1704,6337.03
23.2044,6328.58
23.2384,6320.13
23.2724,6311.68
23.3064,6303.23
23.3404,6297.93
23.3744,6295.773
23.4084,6293.62
23.4424,6291.46
23.4764,6289.3
23.5104,6287.15
23.5444,6284.99
23.5784,6282.83
23.6124,6280.38
23.6464,6277.92
23.6804,6275.47
23.7144,6273.02
23.7484,6270.56
23.7824,6268.11
23.8164,6265.66
23.8504,6263.202
23.8844,6260.75
23.9184,6258.29
23.9524,6255.84
23.9864,6253.39
24.0204,6250.93
24.0544,6248.48
24.0884,6246.03
24.1224,6243.27
24.1564,6240.52
24.1904,6237.77
24.2244,6235.02
24.2584,6232.27
24.2924,6229.52
24.3264,6226.77
24.3604,6223.87
24.3944,6220.83
24.4284,6217.78
24.4624,6214.734
24.4964,6211.69
24.5304,6208.64
24.5644,6205.6
24.5984,6202.55
24.6324,6199.12
24.6664,6195.7
24.7004,6192.27
24.7344,6188.85
24.7684,6185.42
24.8024,6181.99
24.8364,6178.57
24.8704,6174.97
24.9044,6171.2
24.9384,6167.44
24.9724,6163.67
25.0064,6159.9
25.0404,6156.14
25.0744,6152.37
25.1084,6148.6
25.1424,6149.36
25.1764,6150.12
25.2104,6150.87
25.2444,6151.63
25.2784,6152.38
25.3124,6153.14
25.3464,6153.9
25.3804,6154.5
25.4144,6154.955
25.4484,6155.41
25.4824,6155.86
25.5164,6156.32
25.5504,6156.77
25.5844,6157.22
25.6184,6157.68
25.6524,6157.8
25.6864,6157.93
25.7204,6158.06
25.7544,6158.18
25.7884,6158.308
25.8224,6158.43
25.8564,6158.56
25.8904,6158.51
25.9244,6158.28
25.9584,6158.05
25.9924,6157.83
26.0264,6157.599
26.0604,6157.37
26.0944,6157.14
26.1284,6156.92
26.1624,6156.32
26.1964,6155.73
26.2304,6155.14
26.2644,6154.55
26.2984,6153.96
26.3324,6153.37
26.3664,6152.78
26.4004,6152
26.4344,6151.05
26.4684,6150.11
26.5024,6149.16
26.5364,6148.21
26.5704,6147.26
26.6044,6146.31
26.6384,6145.356
26.6724,6144.06
26.7064,6142.76
26.7404,6141.467
26.7744,6140.17
26.8084,6138.87
26.8424,6137.58
26.8764,6136.28
26.9104,6134.82
26.9444,6133.19
26.9784,6131.56
27.0124,6129.93
27.0464,6128.3
27.0804,6126.68
27.1144,6125.05
27.1484,6123.42
27.1824,6121.47
27.2164,6119.52
27.2504,6117.58
27.2844,6115.63
27.3184,6113.68
27.3524,6111.73
27.3864,6109.785
27.4204,6107.84
27.4544,6105.89
27.4884,6103.94
27.5224,6101.99
27.5564,6100.05
27.5904,6098.1
27.6244,6096.15
27.6584,6094.2
27.6924,6091.94
27.7264,6089.67
27.7604,6087.41
27.7944,6085.14
27.8284,6082.87
27.8624,6080.607
27.8964,6078.34
27.9304,6075.92
27.9644,6073.35
27.9984,6070.78
28.0324,6068.21
28.0664,6065.64
28.1004,6063.07
28.1344,6060.49
28.1684,6057.92
28.2024,6055.06
28.2364,6052.2
28.2704,6049.33
28.3044,6046.47
28.3384,6043.61
28.3724,6040.74
28.4064,6037.88
28.4404,6034.88
28.4744,6031.73
28.5084,6028.59
28.5424,6025.45
28.5764,6022.3
28.6104,6019.157
28.6444,6016.01
28.6784,6012.87
28.7124,6009.45
28.7464,6006.03
28.7804,6002.61
28.8144,5999.2
28.8484,5995.78
28.8824,5992.36
28.9164,5988.94
28.9504,5985.39
28.9844,5981.7
29.0184,5978.01
29.0524,5974.32
29.0864,5970.63
29.1204,5966.94
29.1544,5963.25
29.1884,5959.563
29.2224,5955.54
29.2564,5951.51
29.2904,5947.49
29.3244,5943.47
29.3584,5939.441
29.3924,5935.42
29.4264,5931.39
29.4604,5928.07
29.4944,5925.44
29.5284,5922.82
29.5624,5920.19
29.5964,5917.57
29.6304,5914.94
29.6644,5912.31
29.6984,5909.69
29.7324,5906.798
29.7664,5903.91
29.8004,5901.02
29.8344,5898.13
29.8684,5895.24
29.9024,5892.34
29.9364,5889.45
29.9704,5886.56
30.0044,5883.67
30.0384,5880.78
30.0724,5877.89
30.1064,5875
30.1404,5872.11
30.1744,5869.219
30.2084,5866.33
30.2424,5863.17
30.2764,5860.02
30.3104,5856.86
30.3444,5853.7
30.3784,5850.55
30.4124,5847.393
30.4464,5844.24
30.4804,5840.92
30.5144,5837.43
30.5484,5833.95
30.5824,5830.47
30.6164,5826.98
30.6504,5823.5
30.6844,5820.02
30.7184,5816.53
30.7524,5816.82
30.7864,5817.107
30.8204,5817.39
30.8544,5817.68
30.8884,5817.97
30.9224,5818.26
30.9564,5818.55
30.9904,5818.73
31.0244,5818.81
31.0584,5818.89
31.0924,5818.97
31.1264,5819.05
31.1604,5819.13
31.1944,5819.21
31.2284,5819.29
31.2624,5819.12
31.2964,5818.948
31.3304,5818.78
31.3644,5818.61
31.3984,5818.44
31.4324,5818.27
31.4664,5818.1
31.5004,5817.93
31.5344,5817.77
31.5684,5817.6
31.6024,5817.43
31.6364,5817.26
31.6704,5817.09
31.7044,5816.921
31.7384,5816.75
31.7724,5816.2
31.8064,5815.64
31.8404,5815.09
31.8744,5814.53
31.9084,5813.98
31.9424,5813.43
31.9764,5812.87
32.0104,5812.18
32.0444,5811.35
32.0784,5810.53
32.1124,5809.7
32.1464,5808.87
32.1804,5808.04
32.2144,5807.22
32.2484,5806.39
32.2824,5805.56
32.3164,5804.74
32.3504,5803.91
32.3844,5803.08
32.4184,5802.26
32.4524,5801.43
32.4864,5800.6
32.5204,5800.57
32.5544,5801.33
32.5884,5802.1
32.6224,5802.86
32.6564,5803.62
32.6904,5804.39
32.7244,5805.15
32.7584,5805.92
32.7924,5806.37
32.8264,5806.83
32.8604,5807.29
32.8944,5807.75
32.9284,5808.21
32.9624,5808.67
32.9964,5809.12
33.0304,5809.43
33.0644,5809.57
33.0984,5809.71
33.1324,5809.86
33.1664,5810
33.2004,5810.14
33.2344,5810.29
33.2684,5810.432
33.3024,5810.25
33.3364,5810.07
33.3704,5809.89
33.4044,5809.71
33.4384,5809.529
33.4724,5809.35
33.5064,5809.17
33.5404,5808.82
33.5744,5808.31
33.6084,5807.802
33.6424,5807.29
33.6764,5806.78
33.7104,5806.27
33.7444,5805.76
33.7784,5805.251
33.8124,5804.74
33.8464,5804.23
33.8804,5803.72
33.9144,5803.21
33.9484,5802.7
33.9824,5802.19
34.0164,5801.68
34.0504,5801
34.0844,5800.16
34.1184,5799.33
34.1524,5798.49
34.1864,5797.65
34.2204,5796.81
34.2544,5795.966
34.2884,5795.13
34.3224,5793.95
34.3564,5792.777
34.3904,5791.6
34.4244,5790.43
34.4584,5789.25
34.4924,5788.08
34.5264,5786.904
34.5604,5785.56
34.5944,5784.05
34.6284,5782.54
34.6624,5781.031
34.6964,5779.52
34.7304,5778.01
34.7644,5776.5
34.7984,5774.99
34.8324,5773.153
34.8664,5771.32
34.9004,5769.48
34.9344,5767.64
34.9684,5765.8
35.0024,5763.97
35.0364,5762.13
35.0704,5760.14
35.1044,5757.99
35.1384,5755.84
35.1724,5753.69
35.2064,5751.54
35.2404,5749.39
35.2744,5747.25
35.3084,5745.1
35.3424,5744.079
35.3764,5743.061
35.4104,5742.04
35.4444,5741.03
35.4784,5740.01
35.5124,5738.99
35.5464,5737.97
35.5804,5736.777
35.6144,5735.41
35.6484,5734.04
35.6824,5732.67
35.7164,5731.29
35.7504,5729.92
35.7844,5728.55
35.8184,5727.18
35.8524,5725.81
35.8864,5724.44
35.9204,5723.07
35.9544,5721.7
35.9884,5720.33
36.0224,5718.96
36.0564,5717.59
36.0904,5716.52
36.1244,5715.74
36.1584,5714.966
36.1924,5714.19
36.2264,5713.42
36.2604,5712.64
36.2944,5711.86
36.3284,5711.09
36.3624,5710.31
36.3964,5709.54
36.4304,5708.76
36.4644,5707.99
36.4984,5707.21
36.5324,5706.44
36.5664,5705.66
36.6004,5704.83
36.6344,5703.93
36.6684,5703.04
36.7024,5702.14
36.7364,5701.25
36.7704,5700.35
36.8044,5699.46
36.8384,5698.56
36.8724,5697.67
36.9064,5696.77
36.9404,5695.88
36.9744,5694.98
37.0084,5694.089
37.0424,5693.19
37.0764,5692.3
37.1104,5691.24
37.1444,5690.01
37.1784,5688.78
37.2124,5687.54
37.2464,5686.314
37.2804,5685.08
37.3144,5683.85
37.3484,5682.622
37.3824,5684.26
37.4164,5685.9
37.4504,5687.54
37.4844,5689.19
37.5184,5690.83
37.5524,5692.47
37.5864,5694.11
37.6204,5695.59
37.6544,5696.92
37.6884,5698.247
37.7224,5699.57
37.7564,5700.9
37.7904,5702.23
37.8244,5703.56
37.8584,5704.88
37.8924,5705.88
37.9264,5706.87
37.9604,5707.86
37.9944,5708.85
38.0284,5709.85
38.0624,5710.84
38.0964,5711.83
38.1304,5712.65
38.1644,5713.29
38.1984,5713.93
38.2324,5714.57
38.2664,5715.21
38.3004,5715.853
38.3344,5716.49
38.3684,5717.13
38.4024,5717.42
38.4364,5717.7
38.4704,5717.98
38.5044,5718.26
38.5384,5718.54
38.5724,5718.82
38.6064,5719.102
38.6404,5719.38
38.6744,5719.66
38.7084,5719.95
38.7424,5720.23
38.7764,5720.51
38.8104,5720.79
38.8444,5721.07
38.8784,5721.351
38.9124,5721.27
38.9464,5721.19
38.9804,5721.12
39.0144,5721.04
39.0484,5720.96
39.0824,5720.88
39.1164,5720.803
39.1504,5720.54
39.1844,5720.1
39.2184,5719.652
39.2524,5719.21
39.2864,5718.76
39.3204,5718.32
39.3544,5717.87
39.3884,5717.43
39.4224,5716.62
39.4564,5715.81
39.4904,5715.01
39.5244,5714.2
39.5584,5713.39
39.5924,5712.59
39.6264,5711.779
39.6604,5710.8
39.6944,5709.66
39.7284,5708.51
39.7624,5707.367
39.7964,5706.22
39.8304,5705.08
39.8644,5703.93
39.8984,5702.79
39.9324,5701.346
39.9664,5699.91
40.0004,5698.47
40.0344,5697.03
40.0684,5695.59
40.1024,5694.15
40.1364,5692.71
40.1704,5691.42
40.2044,5690.28
40.2384,5689.14
40.2724,5688
40.3064,5686.865
40.3404,5685.73
40.3744,5684.59
40.4084,5683.45
40.4424,5682.076
40.4764,5680.7
40.5104,5679.33
40.5444,5677.95
40.5784,5676.58
40.6124,5675.2
40.6464,5673.83
40.6804,5672.45
40.7144,5671.08
40.7484,5669.71
40.7824,5668.33
40.8164,5666.96
40.8504,5665.58
40.8844,5664.207
40.9184,5662.83
40.9524,5661.22
40.9864,5659.61
41.0204,5658
41.0544,5656.39
41.0884,5654.78
41.1224,5653.17
41.1564,5651.56
41.1904,5651.17
41.2244,5651.99
41.2584,5652.82
41.2924,5653.65
41.3264,5654.48
41.3604,5655.31
41.3944,5656.14
41.4284,5656.97
41.4624,5657.58
41.4964,5658.191
41.5304,5658.8
41.5644,5659.412
41.5984,5660.02
41.6324,5660.63
41.6664,5661.24
41.7004,5661.75
41.7344,5662.14
41.7684,5662.54
41.8024,5662.93
41.8364,5663.32
41.8704,5663.72
41.9044,5664.11
41.9384,5664.51
41.9724,5664.65
42.0064,5664.79
42.0404,5664.93
42.0744,5665.08
42.1084,5665.22
42.1424,5665.36
42.1764,5665.5
42.2104,5665.49
42.2444,5665.34
42.2784,5665.18
42.3124,5665.02
42.3464,5664.86
42.3804,5664.7
42.4144,5664.54
42.4484,5664.38
42.4824,5663.89
42.5164,5663.4
42.5504,5662.91
42.5844,5662.42
42.6184,5661.93
42.6524,5661.444
42.6864,5660.95
42.7204,5660.46
42.7544,5659.98
42.7884,5659.49
42.8224,5659
42.8564,5658.51
42.8904,5658.02
42.9244,5657.53
42.9584,5657.04
42.9924,5656.22
43.0264,5655.4
43.0604,5654.58
43.0944,5653.76
43.1284,5652.94
43.1624,5652.12
43.1964,5651.3
43.2304,5650.3
43.2644,5649.12
43.2984,5647.94
43.3324,5646.76
43.3664,5645.58
43.4004,5644.4
43.4344,5643.21
43.4684,5642.03
43.5024,5640.48
43.5364,5638.93
43.5704,5637.383
43.6044,5635.83
43.6384,5634.28
43.6724,5632.73
43.7064,5631.18
43.7404,5629.47
43.7744,5627.58
43.8084,5625.7
43.8424,5623.82
43.8764,5621.94
43.9104,5620.06
43.9444,5618.182
43.9784,5616.3
44.0124,5616.37
44.0464,5616.447
44.0804,5616.52
44.1144,5616.59
44.1484,5616.67
44.1824,5616.738
44.2164,5616.81
44.2504,5616.78
44.2844,5616.653
44.3184,5616.52
44.3524,5616.39
44.3864,5616.26
44.4204,5616.14
44.4544,5616.01
44.4884,5615.88
44.5224,5615.747
44.5564,5615.62
44.5904,5615.49
44.6244,5615.36
44.6584,5615.23
44.6924,5615.1
44.7264,5614.97
44.7604,5614.74
44.7944,5614.41
44.8284,5614.08
44.8624,5613.75
44.8964,5613.41
44.9304,5613.08
44.9644,5612.75
44.9984,5612.42
45.0324,5611.91
45.0664,5611.41
45.1004,5610.9
45.1344,5610.4
45.1684,5609.9
45.2024,5609.39
45.2364,5608.89
45.2704,5608.38
45.3044,5607.88
45.3384,5607.37
45.3724,5606.87
45.4064,5606.36
45.4404,5605.86
45.4744,5605.35
45.5084,5604.85
45.5424,5606.62
45.5764,5608.39
45.6104,5610.17
45.6444,5611.94
45.6784,5613.714
45.7124,5615.49
45.7464,5617.26
45.7804,5618.87
45.8144,5620.304
45.8484,5621.74
45.8824,5623.18
45.9164,5624.62
45.9504,5626.06
45.9844,5627.49
46.0184,5628.933
46.0524,5629.99
46.0864,5631.05
46.1204,5632.11
46.1544,5633.18
46.1884,5634.24
46.2224,5635.3
46.2564,5636.36
46.2904,5637.27
46.3244,5638.038
46.3584,5638.8
46.3924,5639.57
46.4264,5640.34
46.4604,5641.11
46.4944,5641.87
46.5284,5642.639
46.5624,5643.11
46.5964,5643.59
46.6304,5644.06
46.6644,5644.53
46.6984,5645.01
46.7324,5645.48
46.7664,5645.95
46.8004,5646.29
46.8344,5646.5
46.8684,5646.7
46.9024,5646.91
46.9364,5647.11
46.9704,5647.31
47.0044,5647.52
47.0384,5647.72
47.0724,5647.65
47.1064,5647.58
47.1404,5647.51
47.1744,5647.44
47.2084,5647.37
47.2424,5647.3
47.2764,5647.23
47.3104,5647.02
47.3444,5646.66
47.3784,5646.3
47.4124,5645.94
47.4464,5645.58
47.4804,5645.221
47.5144,5644.86
47.5484,5644.5
47.5824,5644.14
47.6164,5643.78
47.6504,5643.43
47.6844,5643.07
47.7184,5642.71
47.7524,5642.35
47.7864,5641.99
47.8204,5641.49
47.8544,5640.84
47.8884,5640.19
47.9224,5639.54
47.9564,5638.9
47.9904,5638.248
48.0244,5637.6
48.0584,5636.95
48.0924,5636
48.1264,5635.05
48.1604,5634.1
48.1944,5633.153
48.2284,5632.2
48.2624,5631.25
48.2964,5630.3
48.3304,5629.19
48.3644,5627.92
48.3984,5626.64
48.4324,5625.37
48.4664,5624.1
48.5004,5622.82
48.5344,5621.55
48.5684,5620.28
48.6024,5618.67
48.6364,5617.071
48.6704,5615.47
48.7044,5613.86
48.7384,5612.26
48.7724,5610.66
48.8064,5609.06
48.8404,5608.41
48.8744,5608.73
48.9084,5609.05
48.9424,5609.37
48.9764,5609.69
49.0104,5610.01
49.0444,5610.33
49.0784,5610.65
49.1124,5612.29
49.1464,5613.928
49.1804,5615.57
49.2144,5617.2
49.2484,5618.84
49.2824,5620.48
49.3164,5622.11
49.3504,5623.75
49.3844,5625.39
49.4184,5627.03
49.4524,5628.66
49.4864,5630.3
49.5204,5631.94
49.5544,5633.58
49.5884,5635.21
49.6224,5636.62
49.6564,5638.03
49.6904,5639.438
49.7244,5640.85
49.7584,5642.25
49.7924,5643.66
49.8264,5645.071
49.8604,5646.8
49.8944,5648.84
49.9284,5650.88
49.9624,5652.92
49.9964,5654.96
50.0304,5657
50.0644,5659.04
50.0984,5661.08
50.1324,5662.83
50.1664,5664.58
50.2004,5666.33
50.2344,5668.08
50.2684,5669.83
50.3024,5671.58
50.3364,5673.333
50.3704,5674.94
50.4044,5676.41
50.4384,5677.883
50.4724,5679.35
50.5064,5680.82
50.5404,5682.29
50.5744,5683.76
50.6084,5685.23
50.6424,5686.42
50.6764,5687.61
50.7104,5688.8
50.7444,5689.99
50.7784,5691.17
50.8124,5692.36
50.8464,5693.55
50.8804,5694.6
50.9144,5695.49
50.9484,5696.39
50.9824,5697.29
51.0164,5698.19
51.0504,5699.09
51.0844,5699.99
51.1184,5700.88
51.1524,5701.48
51.1864,5702.08
51.2204,5702.67
51.2544,5703.27
51.2884,5703.86
51.3224,5704.46
51.3564,5705.05
51.3904,5705.65
51.4244,5706.24
51.4584,5706.84
51.4924,5707.43
51.5264,5708.03
51.5604,5708.62
51.5944,5709.22
51.6284,5709.81
51.6624,5710.1
51.6964,5710.4
51.7304,5710.69
51.7644,5710.98
51.7984,5711.27
51.8324,5711.564
51.8664,5711.86
51.9004,5711.99
51.9344,5711.96
51.9684,5711.94
52.0024,5711.92
52.0364,5711.89
52.0704,5711.87
52.1044,5711.84
52.1384,5711.82
52.1724,5711.46
52.2064,5711.1
52.2404,5710.74
52.2744,5710.378
52.3084,5710.02
52.3424,5709.66
52.3764,5709.3
52.4104,5708.76
52.4444,5708.05
52.4784,5707.33
52.5124,5706.62
52.5464,5705.91
52.5804,5705.19
52.6144,5704.48
52.6484,5703.76
52.6824,5702.68
52.7164,5701.59
52.7504,5700.5
52.7844,5699.42
52.8184,5698.33
52.8524,5697.25
52.8864,5696.159
52.9204,5694.88
52.9544,5693.41
52.9884,5691.943
53.0224,5690.47
53.0564,5689
53.0904,5687.54
53.1244,5686.07
53.1584,5684.6
53.1924,5682.75
53.2264,5680.91
53.2604,5679.062
53.2944,5677.217
53.3284,5675.37
53.3624,5673.53
53.3964,5671.68
53.4304,5669.67
53.4644,5667.5
53.4984,5665.32
53.5324,5663.15
53.5664,5660.97
53.6004,5658.8
53.6344,5656.63
53.6684,5654.45
53.7024,5655.13
53.7364,5655.8
53.7704,5656.48
53.8044,5657.16
53.8384,5657.84
53.8724,5658.51
53.9064,5659.19
53.9404,5659.87
53.9744,5660.54
54.0084,5661.22
54.0424,5661.9
54.0764,5662.57
54.1104,5663.25
54.1444,5663.93
54.1784,5664.6
54.2124,5666.19
54.2464,5667.776
54.2804,5669.36
54.3144,5670.95
54.3484,5672.54
54.3824,5674.12
54.4164,5675.71
54.4504,5677.15
54.4844,5678.44
54.5184,5679.73
54.5524,5681.02
54.5864,5682.31
54.6204,5683.61
54.6544,5684.9
54.6884,5686.19
54.7224,5687.14
54.7564,5688.09
54.7904,5689.05
54.8244,5690
54.8584,5690.95
54.8924,5691.9
54.9264,5692.86
54.9604,5693.62
54.9944,5694.2
55.0284,5694.78
55.0624,5695.36
55.0964,5695.94
55.1304,5696.52
55.1644,5697.1
55.1984,5697.68
55.2324,5697.89
55.2664,5698.1
55.3004,5698.31
55.3344,5698.52
55.3684,5698.729
55.4024,5698.94
55.4364,5699.15
55.4704,5699.19
55.5044,5699.04
55.5384,5698.9
55.5724,5698.76
55.6064,5698.62
55.6404,5698.48
55.6744,5698.34
55.7084,5698.202
55.7424,5697.73
55.7764,5697.25
55.8104,5696.78
55.8444,5696.301
55.8784,5695.83
55.9124,5695.35
55.9464,5694.88
55.9804,5694.4
56.0144,5693.92
56.0484,5693.45
56.0824,5692.97
56.1164,5692.5
56.1504,5692.02
56.1844,5691.55
56.2184,5691.07
56.2524,5690.26
56.2864,5689.45
56.3204,5688.64
56.3544,5687.83
56.3884,5687.02
56.4224,5686.21
56.4564,5685.4
56.4904,5684.43
56.5244,5683.31
56.5584,5682.18
56.5924,5681.05
56.6264,5679.92
56.6604,5678.79
56.6944,5677.66
56.7284,5676.53
56.7624,5675.1
56.7964,5673.67
56.8304,5672.24
56.8644,5670.81
56.8984,5669.38
56.9324,5667.94
56.9664,5666.512
57.0004,5666.44
57.0344,5667.717
57.0684,5669
57.1024,5670.28
57.1364,5671.56
57.1704,5672.84
57.2044,5674.12
57.2384,5675.4
57.2724,5676.38
57.3064,5677.36
57.3404,5678.34
57.3744,5679.32
57.4084,5680.3
57.4424,5681.28
57.4764,5682.26
57.5104,5683.096
57.5444,5683.78
57.5784,5684.47
57.6124,5685.15
57.6464,5685.84
57.6804,5686.52
57.7144,5687.205
57.7484,5687.89
57.7824,5688.57
57.8164,5689.26
57.8504,5689.94
57.8844,5690.63
57.9184,5691.31
57.9524,5692
57.9864,5692.68
58.0204,5693.22
58.0544,5693.61
58.0884,5694
58.1224,5694.39
58.1564,5694.78
58.1904,5695.17
58.2244,5695.56
58.2584,5695.95
58.2924,5696.044
58.3264,5696.14
58.3604,5696.24
58.3944,5696.34
58.4284,5696.437
58.4624,5696.54
58.4964,5696.63
58.5304,5696.58
58.5644,5696.38
58.5984,5696.18
58.6324,5695.98
58.6664,5695.78
58.7004,5695.576
58.7344,5695.37
58.7684,5695.17
58.8024,5694.65
58.8364,5694.12
58.8704,5693.6
58.9044,5693.07
58.9384,5692.55
58.9724,5692.02
59.0064,5691.5
59.0404,5690.83
59.0744,5690.01
59.1084,5689.19
59.1424,5688.37
59.1764,5687.55
59.2104,5686.73
59.2444,5685.91
59.2784,5685.089
59.3124,5685.82
59.3464,5686.56
59.3804,5687.29
59.4144,5688.03
59.4484,5688.76
59.4824,5689.5
59.5164,5690.23
59.5504,5690.81
59.5844,5691.24
59.6184,5691.66
59.6524,5692.09
59.6864,5692.51
59.7204,5692.94
59.7544,5693.36
59.7884,5693.78
59.8224,5693.9
59.8564,5694.01
59.8904,5694.12
59.9244,5694.24
59.9584,5694.35
59.9924,5694.46
60.0264,5694.57
60.0604,5694.69
60.0944,5694.8
60.1284,5694.91
60.1624,5695.03
60.1964,5695.14
60.2304,5695.25
60.2644,5695.36
60.2984,5695.48
60.3324,5695.28
60.3664,5695.08
60.4004,5694.879
60.4344,5694.68
60.4684,5694.48
60.5024,5694.28
60.5364,5694.082
60.5704,5693.73
60.6044,5693.21
60.6384,5692.7
60.6724,5692.18
60.7064,5691.67
60.7404,5691.16
60.7744,5690.64
60.8084,5690.13
60.8424,5691.66
60.8764,5693.19
60.9104,5694.71
60.9444,5696.24
60.9784,5697.77
61.0124,5699.3
61.0464,5700.83
61.0804,5702.21
61.1144,5703.45
61.1484,5704.68
61.1824,5705.92
61.2164,5707.157
61.2504,5708.39
61.2844,5709.63
61.3184,5710.87
61.3524,5711.81
61.3864,5712.75
61.4204,5713.69
61.4544,5714.63
61.4884,5715.57
61.5224,5716.506
61.5564,5717.45
61.5904,5718.25
61.6244,5718.91
61.6584,5719.57
61.6924,5720.23
61.7264,5720.89
61.7604,5721.55
61.7944,5722.22
61.8284,5722.88
61.8624,5723.27
61.8964,5723.66
61.9304,5724.05
61.9644,5724.445
61.9984,5724.84
62.0324,5725.23
62.0664,5725.62
62.1004,5726.01
62.1344,5726.41
62.1684,5726.8
62.2024,5727.19
62.2364,5727.58
62.2704,5727.974
62.3044,5728.37
62.3384,5728.76
62.3724,5728.88
62.4064,5729
62.4404,5729.13
62.4744,5729.249
62.5084,5729.37
62.5424,5729.49
62.5764,5729.62
62.6104,5729.61
62.6444,5729.47
62.6784,5729.33
62.7124,5729.2
62.7464,5729.06
62.7804,5728.92
62.8144,5728.78
62.8484,5728.64
62.8824,5728.24
62.9164,5727.84
62.9504,5727.44
62.9844,5727.04
63.0184,5726.64
63.0524,5726.24
63.0864,5725.84
63.1204,5725.28
63.1544,5724.57
63.1884,5723.85
63.2224,5723.14
63.2564,5722.42
63.2904,5721.71
63.3244,5721
63.3584,5720.282
63.3924,5719.181
63.4264,5718.08
63.4604,5716.98
63.4944,5715.88
63.5284,5714.78
63.5624,5713.68
63.5964,5712.57
63.6304,5712.94
63.6644,5714.77
63.6984,5716.6
63.7324,5718.43
63.7664,5720.257
63.8004,5722.09
63.8344,5723.92
63.8684,5725.75
63.9024,5727.58
63.9364,5729.4
63.9704,5731.23
64.0044,5733.064
64.0384,5734.89
64.0724,5736.72
64.1064,5738.55
64.1404,5740.26
64.1744,5741.85
64.2084,5743.43
64.2424,5745.016
64.2764,5746.6
64.3104,5748.19
64.3444,5749.77
64.3784,5751.36
64.4124,5752.81
64.4464,5754.27
64.4804,5755.72
64.5144,5757.18
64.5484,5758.63
64.5824,5760.09
64.6164,5761.55
64.6504,5762.821
64.6844,5763.92
64.7184,5765.01
64.7524,5766.11
64.7864,5767.2
64.8204,5768.3
64.8544,5769.39
64.8884,5770.49
64.9224,5771.29
64.9564,5772.09
64.9904,5772.9
65.0244,5773.7
65.0584,5774.5
65.0924,5775.31
65.1264,5776.11
65.1604,5776.91
65.1944,5777.72
65.2284,5778.52
65.2624,5779.32
65.2964,5780.13
65.3304,5780.931
65.3644,5781.73
65.3984,5782.54
65.4324,5783.05
65.4664,5783.56
65.5004,5784.07
65.5344,5784.59
65.5684,5785.1
65.6024,5785.61
65.6364,5786.12
65.6704,5786.48
65.7044,5786.68
65.7384,5786.88
65.7724,5787.09
65.8064,5787.291
65.8404,5787.49
65.8744,5787.7
65.9084,5787.9
65.9424,5787.78
65.9764,5787.65
66.0104,5787.53
66.0444,5787.41
66.0784,5787.28
66.1124,5787.16
66.1464,5787.04
66.1804,5786.728
66.2144,5786.24
66.2484,5785.74
66.2824,5785.25
66.3164,5784.76
66.3504,5784.27
66.3844,5783.78
66.4184,5783.29
66.4524,5782.51
66.4864,5781.73
66.5204,5780.95
66.5544,5780.17
66.5884,5779.4
66.6224,5778.62
66.6564,5777.84
66.6904,5776.92
66.7244,5775.86
66.7584,5774.79
66.7924,5773.73
66.8264,5772.66
66.8604,5771.6
66.8944,5770.54
66.9284,5769.473
66.9624,5768.41
66.9964,5767.35
67.0304,5766.28
67.0644,5765.22
67.0984,5764.15
67.1324,5763.09
67.1664,5762.026
67.2004,5760.82
67.2344,5759.47
67.2684,5758.12
67.3024,5756.77
67.3364,5755.42
67.3704,5754.07
67.4044,5752.72
67.4384,5751.37
67.4724,5751.04
67.5064,5750.71
67.5404,5750.37
67.5744,5750.04
67.6084,5749.71
67.6424,5749.38
67.6764,5749.05
67.7104,5748.71
67.7444,5748.38
67.7784,5748.05
67.8124,5747.72
67.8464,5747.38
67.8804,5747.05
67.9144,5746.72
67.9484,5746.39
67.9824,5745.68
68.0164,5744.97
68.0504,5744.27
68.0844,5743.56
68.1184,5742.85
68.1524,5742.14
68.1864,5741.437
68.2204,5740.61
68.2544,5739.669
68.2884,5738.73
68.3224,5737.78
68.3564,5736.84
68.3904,5735.9
68.4244,5734.95
68.4584,5734.01
68.4924,5733.07
68.5264,5732.13
68.5604,5731.18
68.5944,5730.24
68.6284,5729.3
68.6624,5728.35
68.6964,5727.41
68.7304,5726.33
68.7644,5725.104
68.7984,5723.88
68.8324,5722.66
68.8664,5721.43
68.9004,5720.21
68.9344,5718.98
68.9684,5717.76
69.0024,5719.35
69.0364,5720.931
69.0704,5722.52
69.1044,5724.1
69.1384,5725.69
69.1724,5727.27
69.2064,5728.86
69.2404,5730.44
69.2744,5732.027
69.3084,5733.61
69.3424,5735.2
69.3764,5736.78
69.4104,5738.37
69.4444,5739.95
69.4784,5741.54
69.5124,5745.68
69.5464,5749.82
69.5804,5753.96
69.6144,5758.1
69.6484,5762.245
69.6824,5766.39
69.7164,5770.53
69.7504,5774.67
69.7844,5778.81
69.8184,5782.95
69.8524,5787.09
69.8864,5791.235
69.9204,5795.38
69.9544,5799.52
69.9884,5801.59