File: herald_visualization/Delia_Scripts/CoF3/CoF3_100mins_Intensity.csv
2Theta,Intensity
20.0084,7218.0
20.0424,7189.71
20.0764,7275.26
20.1104,7385.71
20.1444,7227.37
20.1784,7166.78
20.2124,7151.36
20.2464,7223.534
20.2804,7058.37
20.3144,7095.31
20.3484,7208.73
20.3824,7080.92
20.4164,7119.49
20.4504,7060.23
20.4844,7177.97
20.5184,7086.665
20.5524,7104.2
20.5864,7087.14
20.6204,7038.72
20.6544,7033.8
20.6884,7104.2
20.7224,6995.07
20.7564,7072.19
20.7904,7080.6
20.8244,6985.98
20.8584,6954.43
20.8924,6871.84
20.9264,7096.83
20.9604,6943.33
20.9944,7028.88
21.0284,6683.81
21.0624,6901.09
21.0964,7086.14
21.1304,6991.81
21.1644,6976.31
21.1984,6923.13
21.2324,6808.14
21.2664,6911.07
21.3004,6835.91
21.3344,6889.21
21.3684,6903.214
21.4024,6879.25
21.4364,6759.08
21.4704,6809.41
21.5044,6699.38
21.5384,6810.01
21.5724,6694.69
21.6064,6806.041
21.6404,6807.48
21.6744,6726.24
21.7084,6740.65
21.7424,6770.87
21.7764,6690.59
21.8104,6732.22
21.8444,6597.04
21.8784,6702.949
21.9124,6646.91
21.9464,6650.94
21.9804,6754.49
22.0144,6663.155
22.0484,6537.6
22.0824,6604.519
22.1164,6642.26
22.1504,6525.64
22.1844,6530.25
22.2184,6613.16
22.2524,6600.72
22.2864,6539.41
22.3204,6486.5
22.3544,6609.82
22.3884,6600.68
22.4224,6533.54
22.4564,6414.041
22.4904,6478.21
22.5244,6455.66
22.5584,6564.46
22.5924,6443.69
22.6264,6474.07
22.6604,6463.203
22.6944,6437.89
22.7284,6539.47
22.7624,6499.28
22.7964,6442.19
22.8304,6509.12
22.8644,6365.0
22.8984,6485.69
22.9324,6546.81
22.9664,6340.12
23.0004,6427.57
23.0344,6561.11
23.0684,6490.38
23.1024,6414.65
23.1364,6432.69
23.1704,6512.72
23.2044,6436.01
23.2384,6309.05
23.2724,6338.9
23.3064,6311.463
23.3404,6294.86
23.3744,6327.51
23.4084,6394.28
23.4424,6399.56
23.4764,6316.21
23.5104,6320.01
23.5444,6349.28
23.5784,6385.66
23.6124,6336.84
23.6464,6290.08
23.6804,6205.73
23.7144,6248.55
23.7484,6211.81
23.7824,6310.53
23.8164,6306.68
23.8504,6288.76
23.8844,6141.35
23.9184,6293.35
23.9524,6249.92
23.9864,6160.28
24.0204,6413.51
24.0544,6413.44
24.0884,6314.76
24.1224,6400.16
24.1564,6410.776
24.1904,6313.29
24.2244,6416.89
24.2584,6618.9
24.2924,6416.45
24.3264,6626.84
24.3604,6516.73
24.3944,6575.81
24.4284,6609.39
24.4624,6620.41
24.4964,6644.04
24.5304,6578.55
24.5644,6508.2
24.5984,6469.09
24.6324,6547.19
24.6664,6443.26
24.7004,6430.376
24.7344,6528.86
24.7684,6397.147
24.8024,6196.26
24.8364,6334.2
24.8704,6437.93
24.9044,6311.7
24.9384,6247.66
24.9724,6053.9
25.0064,6274.94
25.0404,6278.03
25.0744,6222.64
25.1084,6083.61
25.1424,6232.12
25.1764,6123.23
25.2104,6139.9
25.2444,6200.07
25.2784,6136.99
25.3124,6254.45
25.3464,6219.13
25.3804,6182.94
25.4144,6297.49
25.4484,6208.55
25.4824,6255.34
25.5164,6170.46
25.5504,6251.22
25.5844,6245.7
25.6184,6225.38
25.6524,6262.315
25.6864,6222.37
25.7204,6274.82
25.7544,6130.583
25.7884,6182.23
25.8224,6116.45
25.8564,6255.03
25.8904,6040.92
25.9244,6296.42
25.9584,6222.51
25.9924,6209
26.0264,6438.53
26.0604,6219.18
26.0944,6261.33
26.1284,6343.48
26.1624,6365.21
26.1964,6329.18
26.2304,6330.62
26.2644,6353.61
26.2984,6409.65
26.3324,6421.7
26.3664,6469.39
26.4004,6550.71
26.4344,6496.36
26.4684,6574.01
26.5024,6623.39
26.5364,6692.63
26.5704,6855.29
26.6044,6742.15
26.6384,6796.8
26.6724,6959.27
26.7064,7129.94
26.7404,7167.46
26.7744,7225.19
26.8084,7228.28
26.8424,7304.53
26.8764,7226.23
26.9104,7456.93
26.9444,7332.13
26.9784,7250.24
27.0124,7098.7
27.0464,6901.34
27.0804,6897.88
27.1144,6752.69
27.1484,6784.34
27.1824,6702.23
27.2164,6560.33
27.2504,6493.29
27.2844,6486.288
27.3184,6442.8
27.3524,6396.88
27.3864,6291.06
27.4204,6414.59
27.4544,6299.79
27.4884,6297.02
27.5224,6192.95
27.5564,6172.5
27.5904,6345.17
27.6244,6262.5
27.6584,6248.97
27.6924,6223.053
27.7264,6200.58
27.7604,6114.33
27.7944,6218.22
27.8284,6132.889
27.8624,6016.62
27.8964,6167.5
27.9304,6169.42
27.9644,6222.05
27.9984,6230.14
28.0324,6104.28
28.0664,6099.96
28.1004,6094.71
28.1344,6060.61
28.1684,6040.87
28.2024,6092.24
28.2364,5968.01
28.2704,6102.77
28.3044,6093.85
28.3384,6161.2
28.3724,6136.99
28.4064,6040.823
28.4404,6086.71
28.4744,6029.3
28.5084,5972.33
28.5424,6025.18
28.5764,6140.68
28.6104,6027.06
28.6444,6087.53
28.6784,6117.28
28.7124,6012.08
28.7464,6067.84
28.7804,6065.58
28.8144,5987.91
28.8484,6159.69
28.8824,5901.77
28.9164,5983.41
28.9504,6101.61
28.9844,6135.03
29.0184,6039.17
29.0524,6059.7
29.0864,6099.22
29.1204,6027.96
29.1544,6059.45
29.1884,6040.5
29.2224,6087.34
29.2564,5933.9
29.2904,6020.77
29.3244,6006.6
29.3584,5943.75
29.3924,6113.05
29.4264,5889.52
29.4604,5955.25
29.4944,5962.75
29.5284,5861.09
29.5624,6023.71
29.5964,6025.07
29.6304,6052.797
29.6644,5999.82
29.6984,5996.55
29.7324,5917.2
29.7664,5862.27
29.8004,5965.42
29.8344,6037.08
29.8684,6090.41
29.9024,5787.22
29.9364,5903.31
29.9704,5909.85
30.0044,5918.01
30.0384,5858.6
30.0724,5890.58
30.1064,5902.55
30.1404,6064.09
30.1744,5883.04
30.2084,5870.771
30.2424,6049.5
30.2764,5954.22
30.3104,5940.26
30.3444,5954.11
30.3784,5973.63
30.4124,5839.583
30.4464,5959.64
30.4804,5972.3
30.5144,5829.87
30.5484,5966.33
30.5824,5981.49
30.6164,5891.16
30.6504,5892.16
30.6844,5910.62
30.7184,5731.28
30.7524,5828.51
30.7864,5830.21
30.8204,5922.41
30.8544,5946.16
30.8884,5904.98
30.9224,5935.5
30.9564,5965.49
30.9904,5865.65
31.0244,5845.36
31.0584,5898.82
31.0924,6007.96
31.1264,5915.11
31.1604,5904.699
31.1944,5871.27
31.2284,5795.888
31.2624,5909.49
31.2964,5855.0
31.3304,5721.5
31.3644,5933.08
31.3984,5764.82
31.4324,5813.06
31.4664,5797.32
31.5004,5851.66
31.5344,6012.7
31.5684,5829.57
31.6024,5948.1
31.6364,5815.86
31.6704,5810.1
31.7044,5695.53
31.7384,5769.96
31.7724,5801.8
31.8064,5661.26
31.8404,5887.67
31.8744,5895.435
31.9084,5935.7
31.9424,5785.32
31.9764,5801.471
32.0104,5879.8
32.0444,5984.19
32.0784,5779.1
32.1124,5823.27
32.1464,5853.12
32.1804,5804.77
32.2144,5857.32
32.2484,5868.77
32.2824,5782.23
32.3164,5876.848
32.3504,5844.09
32.3844,5777.86
32.4184,5791.8
32.4524,5811.59
32.4864,5829.95
32.5204,5865.83
32.5544,5821.07
32.5884,5924.74
32.6224,5923.26
32.6564,5889.51
32.6904,5837.93
32.7244,5846.31
32.7584,5951.54
32.7924,5839.96
32.8264,5720.72
32.8604,5823.08
32.8944,5809.44
32.9284,5847.66
32.9624,5778.27
32.9964,5879.4
33.0304,5910.476
33.0644,5830.46
33.0984,5813.12
33.1324,5848.21
33.1664,5914.9
33.2004,5755.33
33.2344,5896.98
33.2684,5924.69
33.3024,5983.38
33.3364,5918.09
33.3704,5785.53
33.4044,5850.67
33.4384,5855.335
33.4724,5925.175
33.5064,5886.86
33.5404,6079.78
33.5744,6036.3
33.6084,6053.82
33.6424,6238.14
33.6764,5962.33
33.7104,6042.33
33.7444,6117.91
33.7784,6324.82
33.8124,6150.707
33.8464,6190.46
33.8804,6431.82
33.9144,6474.5
33.9484,6410.12
33.9824,6488.09
34.0164,6424.73
34.0504,6405.07
34.0844,6356.73
34.1184,6400.36
34.1524,6285.5
34.1864,6380.51
34.2204,6282.88
34.2544,6235.73
34.2884,6152.45
34.3224,6147.02
34.3564,6105.81
34.3904,5993.58
34.4244,6058.02
34.4584,6018.372
34.4924,6078.6
34.5264,6035.71
34.5604,5904.019
34.5944,5915.16
34.6284,5969.29
34.6624,5801.64
34.6964,5809.069
34.7304,5867.09
34.7644,5919.17
34.7984,5911.45
34.8324,5890.41
34.8664,5861.91
34.9004,5826.41
34.9344,5950.8
34.9684,5828.893
35.0024,5650.7
35.0364,5757.6
35.0704,5779.81
35.1044,5692.09
35.1384,5722
35.1724,5821.06
35.2064,5763.68
35.2404,5795.19
35.2744,5772.16
35.3084,5703.03
35.3424,5864.56
35.3764,5790.0
35.4104,5794.31
35.4444,5779.66
35.4784,5711.37
35.5124,5745.54
35.5464,5823.501
35.5804,5717.28
35.6144,5745.27
35.6484,5698.35
35.6824,5765.16
35.7164,5829.85
35.7504,5849.91
35.7844,5649.67
35.8184,5966.23
35.8524,5858.49
35.8864,5643.79
35.9204,5711.02
35.9544,5614.91
35.9884,5735.07
36.0224,5699.764
36.0564,5755.81
36.0904,5701.94
36.1244,5759.52
36.1584,5735.11
36.1924,5628.31
36.2264,5747.49
36.2604,5709.6
36.2944,5764.83
36.3284,5681.96
36.3624,5828.57
36.3964,5680.21
36.4304,5708.12
36.4644,5760.5
36.4984,5768.67
36.5324,5643.47
36.5664,5724.444
36.6004,5650.31
36.6344,5811.57
36.6684,5731.92
36.7024,5767.13
36.7364,5767.02
36.7704,5670.68
36.8044,5739.31
36.8384,5635.46
36.8724,5809.72
36.9064,5653.44
36.9404,5782.2
36.9744,5639.89
37.0084,5757.01
37.0424,5773.78
37.0764,5750.181
37.1104,5745.202
37.1444,5652.2
37.1784,5727.976
37.2124,5585.17
37.2464,5776.77
37.2804,5720.13
37.3144,5650.99
37.3484,5716.51
37.3824,5662.69
37.4164,5655.695
37.4504,5703.95
37.4844,5696.99
37.5184,5699.51
37.5524,5697.86
37.5864,5713.21
37.6204,5820.44
37.6544,5808.27
37.6884,5662.47
37.7224,5801.96
37.7564,5775.63
37.7904,5743.77
37.8244,5756.2
37.8584,5821.991
37.8924,5669.77
37.9264,5728.99
37.9604,5699.29
37.9944,5695.57
38.0284,5743.88
38.0624,5851.05
38.0964,5757.53
38.1304,5708.51
38.1644,5883.46
38.1984,5857.859
38.2324,5798.64
38.2664,5810.28
38.3004,5855.31
38.3344,5725.27
38.3684,5841.19
38.4024,5834.09
38.4364,5728.366
38.4704,5948.03
38.5044,5765.579
38.5384,5833.69
38.5724,5783.06
38.6064,5800.83
38.6404,5821.56
38.6744,5850.37
38.7084,5858.24
38.7424,5762
38.7764,5812.43
38.8104,5888.98
38.8444,5903.23
38.8784,5946.46
38.9124,5822.36
38.9464,5817.64
38.9804,5911.728
39.0144,5963.37
39.0484,5898.39
39.0824,5891.37
39.1164,5926.47
39.1504,6045.92
39.1844,6038.46
39.2184,6046.09
39.2524,6055.02
39.2864,6026.82
39.3204,5913.52
39.3544,5960.147
39.3884,6069.53
39.4224,6001.18
39.4564,5891.41
39.4904,5948.4
39.5244,5830.64
39.5584,5806.56
39.5924,5828.37
39.6264,5842.02
39.6604,5873.08
39.6944,5882.97
39.7284,5805.09
39.7624,5593.86
39.7964,5669.01
39.8304,5669.483
39.8644,5755.78
39.8984,5740.54
39.9324,5806.55
39.9664,5718.42
40.0004,5688.91
40.0344,5696.31
40.0684,5775.19
40.1024,5699.82
40.1364,5746.455
40.1704,5632.26
40.2044,5739.568
40.2384,5761.89
40.2724,5693.65
40.3064,5756.54
40.3404,5658.43
40.3744,5655.96
40.4084,5717.33
40.4424,5760.6
40.4764,5639.16
40.5104,5643.33
40.5444,5671.76
40.5784,5733.29
40.6124,5652.37
40.6464,5676.37
40.6804,5835.72
40.7144,5773.79
40.7484,5597.49
40.7824,5675.25
40.8164,5738.3
40.8504,5764.99
40.8844,5719.47
40.9184,5810.91
40.9524,5710.13
40.9864,5710.05
41.0204,5714.31
41.0544,5679.7
41.0884,5848.79
41.1224,5747.65
41.1564,5737.48
41.1904,5560.86
41.2244,5660.69
41.2584,5663.09
41.2924,5774.74
41.3264,5766.3
41.3604,5856.91
41.3944,5720.38
41.4284,5725.58
41.4624,5750
41.4964,5642.66
41.5304,5667.54
41.5644,5651.36
41.5984,5655.3
41.6324,5795.35
41.6664,5677.01
41.7004,5628.45
41.7344,5671.16
41.7684,5767.46
41.8024,5673.64
41.8364,5784.48
41.8704,5718.43
41.9044,5677.88
41.9384,5693.2
41.9724,5652.6
42.0064,5640.56
42.0404,5685.738
42.0744,5625.91
42.1084,5623.35
42.1424,5619.07
42.1764,5721.36
42.2104,5621.71
42.2444,5747.7
42.2784,5686.7
42.3124,5732.06
42.3464,5845.7
42.3804,5769.24
42.4144,5745.25
42.4484,5671.81
42.4824,5608.91
42.5164,5654.32
42.5504,5763.63
42.5844,5692.43
42.6184,5841.55
42.6524,5610.59
42.6864,5743.98
42.7204,5723.97
42.7544,5641.2
42.7884,5726.34
42.8224,5902.81
42.8564,5811.02
42.8904,5770.28
42.9244,5785.87
42.9584,5645.01
42.9924,5709.265
43.0264,5785.04
43.0604,5725
43.0944,5716.39
43.1284,5668.74
43.1624,5763.45
43.1964,5799.33
43.2304,5816.21
43.2644,5760.38
43.2984,5720.1
43.3324,5797.57
43.3664,5777.047
43.4004,5798.28
43.4344,5780.07
43.4684,5689.37
43.5024,5717.003
43.5364,5672.03
43.5704,5798.37
43.6044,5731.1
43.6384,5690.51
43.6724,5559.27
43.7064,5657.72
43.7404,5657.92
43.7744,5625.02
43.8084,5651.377
43.8424,5664.77
43.8764,5654.95
43.9104,5635.31
43.9444,5771.43
43.9784,5635.65
44.0124,5581.26
44.0464,5638.07
44.0804,5626.3
44.1144,5607.45
44.1484,5714.7
44.1824,5639.83
44.2164,5641.77
44.2504,5643.36
44.2844,5596.91
44.3184,5758.47
44.3524,5614.19
44.3864,5633.57
44.4204,5615.816
44.4544,5742.2
44.4884,5637.93
44.5224,5706.97
44.5564,5636.31
44.5904,5687.65
44.6244,5608.622
44.6584,5678
44.6924,5671.34
44.7264,5605.07
44.7604,5682.34
44.7944,5650.69
44.8284,5736.89
44.8624,5654.2
44.8964,5702.75
44.9304,5643.07
44.9644,5597.72
44.9984,5530.318
45.0324,5756.15
45.0664,5664.43
45.1004,5752.29
45.1344,5639.27
45.1684,5644.51
45.2024,5573.55
45.2364,5672.96
45.2704,5602.47
45.3044,5589.75
45.3384,5598.03
45.3724,5625.525
45.4064,5494.855
45.4404,5661.21
45.4744,5491.56
45.5084,5632.65
45.5424,5682.73
45.5764,5709.24
45.6104,5658.38
45.6444,5633.21
45.6784,5697.21
45.7124,5773.44
45.7464,5574.31
45.7804,5652.89
45.8144,5586.16
45.8484,5728.12
45.8824,5681.28
45.9164,5612.55
45.9504,5695.99
45.9844,5733.03
46.0184,5627.91
46.0524,5766.62
46.0864,5602.18
46.1204,5706.23
46.1544,5637.26
46.1884,5649.11
46.2224,5648.77
46.2564,5679.33
46.2904,5709.11
46.3244,5748.61
46.3584,5690.02
46.3924,5608.04
46.4264,5577.26
46.4604,5618.94
46.4944,5615.95
46.5284,5737.31
46.5624,5589.618
46.5964,5683.71
46.6304,5602.58
46.6644,5699.06
46.6984,5747.59
46.7324,5722.79
46.7664,5727.84
46.8004,5652.33
46.8344,5579.934
46.8684,5572.66
46.9024,5646.66
46.9364,5649.91
46.9704,5710.17
47.0044,5734.12
47.0384,5711.41
47.0724,5647.69
47.1064,5682.57
47.1404,5670.93
47.1744,5660.94
47.2084,5733.91
47.2424,5730.11
47.2764,5595.63
47.3104,5658.82
47.3444,5630.15
47.3784,5606.15
47.4124,5583.62
47.4464,5561.8
47.4804,5671.25
47.5144,5567.65
47.5484,5691.7
47.5824,5698.88
47.6164,5724.229
47.6504,5697.06
47.6844,5595.68
47.7184,5591.83
47.7524,5759.23
47.7864,5728.94
47.8204,5571.91
47.8544,5616.31
47.8884,5543.61
47.9224,5525.178
47.9564,5620.51
47.9904,5570.63
48.0244,5669.31
48.0584,5696.289
48.0924,5557.41
48.1264,5620.49
48.1604,5668.63
48.1944,5571.611
48.2284,5625.298
48.2624,5518.88
48.2964,5615.25
48.3304,5739.67
48.3644,5621.6
48.3984,5621.36
48.4324,5589.74
48.4664,5572.18
48.5004,5747
48.5344,5526.58
48.5684,5577.18
48.6024,5660.92
48.6364,5623.83
48.6704,5609.25
48.7044,5726.96
48.7384,5685.36
48.7724,5663.71
48.8064,5593.78
48.8404,5646.86
48.8744,5546
48.9084,5638.44
48.9424,5573.32
48.9764,5630.37
49.0104,5607.83
49.0444,5569.68
49.0784,5634.81
49.1124,5628.82
49.1464,5769.09
49.1804,5678.51
49.2144,5718.83
49.2484,5708.57
49.2824,5644.7
49.3164,5660.2
49.3504,5728.87
49.3844,5750.72
49.4184,5616.67
49.4524,5660.96
49.4864,5660.85
49.5204,5668.48
49.5544,5619.45
49.5884,5676.37
49.6224,5690.25
49.6564,5762.44
49.6904,5621.66
49.7244,5612.7
49.7584,5689.87
49.7924,5638.99
49.8264,5647.099
49.8604,5674.7
49.8944,5661.71
49.9284,5737.55
49.9624,5785.52
49.9964,5776.96
50.0304,5738.81
50.0644,5605.83
50.0984,5732.907
50.1324,5700.2
50.1664,5646.38
50.2004,5737.265
50.2344,5696.12
50.2684,5682.53
50.3024,5796.17
50.3364,5796.94
50.3704,5754.52
50.4044,5833.44
50.4384,5620.96
50.4724,5664.462
50.5064,5850.07
50.5404,5817.77
50.5744,5648.09
50.6084,5772.05
50.6424,5790.38
50.6764,5724.18
50.7104,5737.07
50.7444,5860.81
50.7784,5740.995
50.8124,5721.942
50.8464,5785.708
50.8804,5650.33
50.9144,5696.8
50.9484,5767.91
50.9824,5756.29
51.0164,5723.91
51.0504,5723.82
51.0844,5683.42
51.1184,5751.06
51.1524,5776.26
51.1864,5662.548
51.2204,5879.21
51.2544,5844.93
51.2884,5726.24
51.3224,5857.76
51.3564,5684.96
51.3904,5724.04
51.4244,5729.3
51.4584,5824.29
51.4924,5783.97
51.5264,5728.82
51.5604,5795.09
51.5944,5778.41
51.6284,5898.41
51.6624,5922.45
51.6964,5887.67
51.7304,6068.32
51.7644,6006.671
51.7984,6092.81
51.8324,6118.56
51.8664,6064.85
51.9004,6047.03
51.9344,6119.0
51.9684,6187.13
52.0024,6243.33
52.0364,6257.26
52.0704,6380.15
52.1044,6251.91
52.1384,6490.54
52.1724,6351.41
52.2064,6428.71
52.2404,6405.22
52.2744,6423.288
52.3084,6314.61
52.3424,6338.93
52.3764,6445.45
52.4104,6388.47
52.4444,6201.3
52.4784,6069.02
52.5124,6109.63
52.5464,6189.8
52.5804,5914.68
52.6144,6042.81
52.6484,6071.51
52.6824,5979.22
52.7164,5880.78
52.7504,5991.45
52.7844,6000.99
52.8184,5965.93
52.8524,5947.64
52.8864,5809.19
52.9204,5823.13
52.9544,5731.14
52.9884,5815.62
53.0224,5832.73
53.0564,5687.79
53.0904,5828.71
53.1244,5671.2
53.1584,5915.32
53.1924,5764.18
53.2264,5876.91
53.2604,5717.503
53.2944,5776.96
53.3284,5659.16
53.3624,5737.02
53.3964,5663.14
53.4304,5736.82
53.4644,5546.63
53.4984,5562.273
53.5324,5671.5
53.5664,5665.67
53.6004,5754.16
53.6344,5487.6
53.6684,5723.68
53.7024,5717.54
53.7364,5875.65
53.7704,5690.77
53.8044,5738.22
53.8384,5634.96
53.8724,5685.24
53.9064,5662.32
53.9404,5762.16
53.9744,5724.33
54.0084,5677.13
54.0424,5639.49
54.0764,5694.81
54.1104,5735.49
54.1444,5710.23
54.1784,5665.82
54.2124,5593.37
54.2464,5624.34
54.2804,5816.83
54.3144,5682.22
54.3484,5663
54.3824,5665.86
54.4164,5734.91
54.4504,5853.73
54.4844,5697.06
54.5184,5694.78
54.5524,5743.622
54.5864,5810.01
54.6204,5802.05
54.6544,5719.9
54.6884,5767.03
54.7224,5834.95
54.7564,5866.36
54.7904,5811.6
54.8244,5799.23
54.8584,5813.48
54.8924,5742.73
54.9264,5850.82
54.9604,5826.93
54.9944,5806.87
55.0284,5877.13
55.0624,6010.82
55.0964,5906.27
55.1304,5823.22
55.1644,5952.56
55.1984,6015.35
55.2324,6000
55.2664,6006.0
55.3004,6062.03
55.3344,5927.914
55.3684,6019.06
55.4024,6071.99
55.4364,5908.5
55.4704,5803.96
55.5044,5871.465
55.5384,5895.28
55.5724,5832.97
55.6064,5890.06
55.6404,5862.34
55.6744,5796.13
55.7084,5823.11
55.7424,5763.28
55.7764,5723.663
55.8104,5690.81
55.8444,5786.21
55.8784,5785.19
55.9124,5845.19
55.9464,5823.73
55.9804,5734.343
56.0144,5745.57
56.0484,5787.171
56.0824,5665.57
56.1164,5782.98
56.1504,5831.42
56.1844,5775.7
56.2184,5771.04
56.2524,5683.96
56.2864,5689.38
56.3204,5849.78
56.3544,5732.55
56.3884,5804.2
56.4224,5681.42
56.4564,5853.65
56.4904,5651.54
56.5244,5689.07
56.5584,5822.42
56.5924,5765.45
56.6264,5674.7
56.6604,5773.93
56.6944,5701.65
56.7284,5796.78
56.7624,5765.06
56.7964,5596.95
56.8304,5671.79
56.8644,5740.08
56.8984,5747.68
56.9324,5686.866
56.9664,5601.57
57.0004,5739.24
57.0344,5788.45
57.0684,5774.46
57.1024,5772.7
57.1364,5727.58
57.1704,5769.66
57.2044,5732.182
57.2384,5768
57.2724,5668.539
57.3064,5672.66
57.3404,5871.71
57.3744,5764.95
57.4084,5711.97
57.4424,5696.67
57.4764,5667.58
57.5104,5791.86
57.5444,5817.949
57.5784,5673.13
57.6124,5882.42
57.6464,5735.22
57.6804,5738.08
57.7144,5725.27
57.7484,5784.57
57.7824,5899.54
57.8164,5773.79
57.8504,5799.88
57.8844,5792.77
57.9184,5853.15
57.9524,5849.74
57.9864,5918.16
58.0204,5757.16
58.0544,5889.77
58.0884,5871.392
58.1224,5895.78
58.1564,5912.48
58.1904,5747.5
58.2244,5851.87
58.2584,5950.11
58.2924,5848.54
58.3264,5682.24
58.3604,5749.45
58.3944,5652.97
58.4284,5774.95
58.4624,5796.08
58.4964,5847.76
58.5304,5780.81
58.5644,5779.62
58.5984,5767.11
58.6324,5750.31
58.6664,5725.16
58.7004,5769.54
58.7344,5664.92
58.7684,5779.66
58.8024,5691.25
58.8364,5750.19
58.8704,5695.68
58.9044,5762.82
58.9384,5719.21
58.9724,5719.27
59.0064,5810.931
59.0404,5782.13
59.0744,5809.11
59.1084,5719.62
59.1424,5728.45
59.1764,5716.16
59.2104,5814.74
59.2444,5637.57
59.2784,5687.79
59.3124,5628.28
59.3464,5806.3
59.3804,5908.45
59.4144,5769.25
59.4484,5716.69
59.4824,5826.46
59.5164,5851.86
59.5504,5678.63
59.5844,5688
59.6184,5650.3
59.6524,5758.65
59.6864,5657.93
59.7204,5720.2
59.7544,5823.37
59.7884,5724.44
59.8224,5754.5
59.8564,5734.94
59.8904,5747.8
59.9244,5808.924
59.9584,5729.1
59.9924,5873.38
60.0264,5604.31
60.0604,5768.7
60.0944,5668.32
60.1284,5795.27
60.1624,5711.46
60.1964,5674.02
60.2304,5680.65
60.2644,5760.42
60.2984,5746.07
60.3324,5640.32
60.3664,5685.66
60.4004,5724.27
60.4344,5664.71
60.4684,5777.32
60.5024,5677.52
60.5364,5735.35
60.5704,5806.04
60.6044,5718.06
60.6384,5780.04
60.6724,5747.39
60.7064,5847.02
60.7404,5756.39
60.7744,5754.7
60.8084,5674.2
60.8424,5686.08
60.8764,5680.77
60.9104,5726.7
60.9444,5779.33
60.9784,5698.45
61.0124,5624.11
61.0464,5816.53
61.0804,5716.86
61.1144,5760.63
61.1484,5737.04
61.1824,5634.02
61.2164,5661.71
61.2504,5718.09
61.2844,5823.61
61.3184,5736.71
61.3524,5742.03
61.3864,5738.88
61.4204,5745.68
61.4544,5737.46
61.4884,5653.82
61.5224,5704.808
61.5564,5762.58
61.5904,5747.65
61.6244,5791.14
61.6584,5763.66
61.6924,5801.43
61.7264,5709.19
61.7604,5733.3
61.7944,5755.96
61.8284,5750.545
61.8624,5692.51
61.8964,5747.04
61.9304,5815.82
61.9644,5807.96
61.9984,5764.9
62.0324,5831.776
62.0664,5785.2
62.1004,5816.104
62.1344,5818.86
62.1684,5834.33
62.2024,5603.76
62.2364,5866.9
62.2704,5743.53
62.3044,5874.86
62.3384,5581.3
62.3724,5826.9
62.4064,5889.62
62.4404,5737.12
62.4744,5808.47
62.5084,5797.79
62.5424,5919.65
62.5764,5753.79
62.6104,5754.7
62.6444,5599.77
62.6784,5807.04
62.7124,5921.54
62.7464,5868.784
62.7804,5832.472
62.8144,5736.93
62.8484,5797.08
62.8824,5885.1
62.9164,5739.52
62.9504,5790.579
62.9844,5836.37
63.0184,5836.26
63.0524,5765.68
63.0864,5636.66
63.1204,5857.4
63.1544,5714.49
63.1884,5752.91
63.2224,5679.76
63.2564,5751.17
63.2904,5992.42
63.3244,5826.79
63.3584,5883.99
63.3924,5796.06
63.4264,5818.82
63.4604,5874.39
63.4944,5755.23
63.5284,5866.08
63.5624,5791.9
63.5964,5719.494
63.6304,5692.61
63.6644,5775.82
63.6984,5770.09
63.7324,5851.8
63.7664,5878.53
63.8004,5753.66
63.8344,5744.62
63.8684,5800.22
63.9024,5746.73
63.9364,5712.98
63.9704,5655.56
64.0044,5854.406
64.0384,5795.67
64.0724,5646.1
64.1064,5807.18
64.1404,5706.52
64.1744,5720.83
64.2084,5842.41
64.2424,6000.41
64.2764,5665.97
64.3104,5816.9
64.3444,5920.69
64.3784,5704.66
64.4124,5794.037
64.4464,5859.18
64.4804,5749.71
64.5144,5797.49
64.5484,5796.417
64.5824,5721.53
64.6164,5728.56
64.6504,5804.61
64.6844,5900.3
64.7184,5847.81
64.7524,5846.98
64.7864,5835.34
64.8204,5797.67
64.8544,5820.4
64.8884,5761.81
64.9224,5822.12
64.9564,5768.75
64.9904,5827.14
65.0244,5890.91
65.0584,5881.5
65.0924,5855.23
65.1264,5829.11
65.1604,5932.4
65.1944,5898.81
65.2284,5934.42
65.2624,5739.602
65.2964,5753.79
65.3304,5875.305
65.3644,5826.87
65.3984,5774.13
65.4324,5765.68
65.4664,5791.81
65.5004,5833.26
65.5344,5840.75
65.5684,5863.81
65.6024,5880.53
65.6364,5777.328
65.6704,5792.42
65.7044,5900.41
65.7384,5841.156
65.7724,5851.1
65.8064,5864.52
65.8404,5876.47
65.8744,5799.97
65.9084,5788.392
65.9424,5886.2
65.9764,5925.09
66.0104,5803.79
66.0444,5852.26
66.0784,5775.47
66.1124,5755.01
66.1464,6051.07
66.1804,5871.55
66.2144,5964.41
66.2484,5873.17
66.2824,5948.58
66.3164,5912.73
66.3504,5899.45
66.3844,5885.4
66.4184,5883.45
66.4524,5986.15
66.4864,6016.68
66.5204,5988.05
66.5544,5890.84
66.5884,5941.25
66.6224,5893.51
66.6564,5943.28
66.6904,6035.23
66.7244,5902.63
66.7584,5967.97
66.7924,5926.11
66.8264,5905.66
66.8604,5808.27
66.8944,5918.93
66.9284,5881.25
66.9624,5782.2
66.9964,6072.92
67.0304,5876.64
67.0644,5827.45
67.0984,5802.66
67.1324,5735.58
67.1664,5848.88
67.2004,5827.47
67.2344,5653.59
67.2684,5713.71
67.3024,5829.06
67.3364,5865.99
67.3704,5833.17
67.4044,5825.69
67.4384,5703.07
67.4724,5770.91
67.5064,5720.78
67.5404,5666.25
67.5744,5733.14
67.6084,5723.699
67.6424,5822.58
67.6764,5851.82
67.7104,5813.1
67.7444,5739.23
67.7784,5841.34
67.8124,5818.18
67.8464,5787.28
67.8804,5709.89
67.9144,5780.4
67.9484,5726.1
67.9824,5784.16
68.0164,5690.61
68.0504,5738.79
68.0844,5693.69
68.1184,5666.92
68.1524,5647.95
68.1864,5692.23
68.2204,5845.93
68.2544,5753.61
68.2884,5816.53
68.3224,5821.33
68.3564,5873.66
68.3904,5750.26
68.4244,5668.06
68.4584,5783.15
68.4924,5888.314
68.5264,5723.86
68.5604,5815.31
68.5944,5755.85
68.6284,5777.62
68.6624,5818.77
68.6964,5798.652
68.7304,5819.98
68.7644,5717.77
68.7984,5739.04
68.8324,5677.82
68.8664,5709.86
68.9004,5743.07
68.9344,5733.575
68.9684,5775.46
69.0024,5749.94
69.0364,5663.23
69.0704,5699.848
69.1044,5877
69.1384,5788.63
69.1724,5620.88
69.2064,5935.75
69.2404,5782.396
69.2744,5839.84
69.3084,5690.79
69.3424,5892.18
69.3764,5774.22
69.4104,5836.75
69.4444,5780.27
69.4784,5687.28
69.5124,5774.44
69.5464,5707.27
69.5804,5654.95
69.6144,5765.22
69.6484,5832.58
69.6824,5855.77
69.7164,5853.55
69.7504,5822.94
69.7844,5662.75
69.8184,5857.28
69.8524,5835.07
69.8864,5744.61
69.9204,5757.14
69.9544,5782.19
69.9884,5803.66