File: herald_visualization/Delia_Scripts/CoF3/CoF3-100min-fit-data.csv
"No.","Pos. [°2θ]","Q [1/Å]","Icalc [cts]","Iback [cts]","ESD","D spacings","CT [s]","Intensity [Counts]"
"1","20.0084","1.4170","7218.78","7218","84.9588","4.4341","99.6950","7218"
"6","20.0934","1.4230","7188.3","7186.53","84.6585","4.4156","99.6950","7167.07"
"11","20.1784","1.4289","7157.37","7155.05","84.6568","4.3972","99.6950","7166.78"
"16","20.2634","1.4349","7125.97","7123.58","84.6333","4.3789","99.6950","7162.79"
"21","20.3484","1.4408","7093.78","7091.32","84.9043","4.3608","99.6950","7208.73"
"26","20.4334","1.4468","7061.59","7059.05","84.4508","4.3429","99.6950","7131.94"
"31","20.5184","1.4527","7029.41","7026.78","84.1823","4.3251","99.6950","7086.66"
"36","20.6034","1.4587","6997.23","6994.52","84.0542","4.3074","99.6950","7065.12"
"41","20.6884","1.4646","6965.05","6962.25","84.2864","4.2899","99.6950","7104.2"
"46","20.7734","1.4706","6932.89","6929.98","84.4583","4.2725","99.6950","7133.21"
"51","20.8584","1.4765","6899.93","6896.92","83.3932","4.2553","99.6950","6954.43"
"56","20.9434","1.4825","6866.98","6863.86","84.6116","4.2382","99.6950","7159.12"
"61","21.0284","1.4884","6834.03","6830.8","81.7546","4.2213","99.6950","6683.81"
"66","21.1134","1.4944","6816.14","6812.78","83.0232","4.2045","99.6950","6892.86"
"71","21.1984","1.5003","6798.25","6794.76","83.2053","4.1878","99.6950","6923.13"
"76","21.2834","1.5063","6780.37","6776.74","83.6701","4.1713","99.6950","7000.68"
"81","21.3684","1.5122","6761.8","6758.03","83.0856","4.1549","99.6950","6903.21"
"86","21.4534","1.5182","6743.25","6739.32","82.8002","4.1386","99.6950","6855.87"
"91","21.5384","1.5241","6724.71","6720.6","82.5228","4.1225","99.6950","6810.01"
"96","21.6234","1.5301","6706.18","6701.89","82.3061","4.1065","99.6950","6774.3"
"101","21.7084","1.5360","6687.66","6683.18","82.1015","4.0906","99.6950","6740.65"
"106","21.7934","1.5420","6669.16","6664.47","81.7194","4.0748","99.6950","6678.05"
"111","21.8784","1.5479","6649.98","6645.06","81.8715","4.0592","99.6950","6702.95"
"116","21.9634","1.5538","6630.82","6625.66","81.2504","4.0437","99.6950","6601.63"
"121","22.0484","1.5598","6611.68","6606.25","80.8555","4.0283","99.6950","6537.6"
"126","22.1334","1.5657","6591.71","6585.99","81.6229","4.0130","99.6950","6662.3"
"131","22.2184","1.5716","6571.77","6565.73","81.3214","3.9978","99.6950","6613.16"
"136","22.3034","1.5776","6551.86","6545.46","80.9187","3.9828","99.6950","6547.83"
"141","22.3884","1.5835","6532.29","6525.51","81.2446","3.9679","99.6950","6600.68"
"146","22.4734","1.5895","6512.76","6505.55","80.0574","3.9530","99.6950","6409.19"
"151","22.5584","1.5954","6493.27","6485.6","81.0213","3.9383","99.6950","6564.46"
"156","22.6434","1.6013","6473.26","6465.06","80.2082","3.9237","99.6950","6433.36"
"161","22.7284","1.6073","6453.31","6444.52","80.8670","3.9093","99.6950","6539.47"
"166","22.8134","1.6132","6433.44","6423.99","80.4641","3.8949","99.6950","6474.46"
"171","22.8984","1.6191","6413.66","6403.45","80.5338","3.8806","99.6950","6485.69"
"176","22.9834","1.6250","6393.99","6382.91","79.7534","3.8665","99.6950","6360.6"
"181","23.0684","1.6310","6374.45","6362.37","80.5629","3.8524","99.6950","6490.38"
"186","23.1534","1.6369","6354.49","6341.25","80.4225","3.8385","99.6950","6467.78"
"191","23.2384","1.6428","6334.74","6320.13","79.4295","3.8246","99.6950","6309.05"
"196","23.3234","1.6488","6315.24","6299.01","79.5731","3.8109","99.6950","6331.87"
"201","23.4084","1.6547","6311.82","6293.62","79.9642","3.7972","99.6950","6394.28"
"206","23.4934","1.6606","6308.85","6288.22","80.0501","3.7837","99.6950","6408.02"
"211","23.5784","1.6665","6306.55","6282.83","79.9104","3.7702","99.6950","6385.66"
"216","23.6634","1.6725","6304.58","6276.7","79.5498","3.7569","99.6950","6328.17"
"221","23.7484","1.6784","6304.52","6270.56","78.8150","3.7436","99.6950","6211.81"
"226","23.8334","1.6843","6307.96","6264.43","79.0393","3.7305","99.6950","6247.22"
"231","23.9184","1.6902","6317.68","6258.29","79.3306","3.7174","99.6950","6293.35"
"236","24.0034","1.6961","6337.7","6252.16","79.2867","3.7044","99.6950","6286.37"
"241","24.0884","1.7020","6372.37","6246.03","79.4655","3.6915","99.6950","6314.76"
"246","24.1734","1.7080","6423.69","6239.15","79.2934","3.6788","99.6950","6287.44"
"251","24.2584","1.7139","6490.24","6232.27","81.3566","3.6661","99.6950","6618.9"
"256","24.3434","1.7198","6560.79","6225.39","81.0316","3.6534","99.6950","6566.12"
"261","24.4284","1.7257","6610.43","6217.78","81.2982","3.6409","99.6950","6609.39"
"266","24.5134","1.7316","6611.56","6210.17","81.0419","3.6285","99.6950","6567.79"
"271","24.5984","1.7375","6559.53","6202.55","80.4307","3.6161","99.6950","6469.09"
"276","24.6834","1.7434","6478","6193.98","79.7327","3.6039","99.6950","6357.31"
"281","24.7684","1.7494","6394.97","6185.42","79.9822","3.5917","99.6950","6397.15"
"286","24.8534","1.7553","6325.13","6176.85","78.9720","3.5796","99.6950","6236.57"
"291","24.9384","1.7612","6271.94","6167.44","79.0422","3.5676","99.6950","6247.66"
"296","25.0234","1.7671","6234.59","6158.02","78.9478","3.5557","99.6950","6232.75"
"301","25.1084","1.7730","6208.96","6148.6","77.9975","3.5438","99.6950","6083.61"
"306","25.1934","1.7789","6202.18","6150.49","78.5952","3.5321","99.6950","6177.2"
"311","25.2784","1.7848","6199.86","6152.38","78.3390","3.5204","99.6950","6136.99"
"316","25.3634","1.7907","6200.14","6154.27","77.7783","3.5088","99.6950","6049.46"
"321","25.4484","1.7966","6201.36","6155.41","78.7943","3.4973","99.6950","6208.55"
"326","25.5334","1.8025","6203.88","6156.54","79.0005","3.4858","99.6950","6241.08"
"331","25.6184","1.8084","6207.6","6157.68","78.9011","3.4744","99.6950","6225.38"
"336","25.7034","1.8143","6211.81","6157.99","78.0897","3.4631","99.6950","6098.01"
"341","25.7884","1.8202","6217.61","6158.31","78.6271","3.4519","99.6950","6182.23"
"346","25.8734","1.8261","6225.59","6158.62","79.3912","3.4408","99.6950","6302.96"
"351","25.9584","1.8320","6236.01","6158.05","78.8829","3.4297","99.6950","6222.51"
"356","26.0434","1.8379","6251.84","6157.49","79.4140","3.4187","99.6950","6306.58"
"361","26.1284","1.8438","6276.52","6156.92","79.6460","3.4078","99.6950","6343.48"
"366","26.2134","1.8497","6314.32","6155.44","79.5687","3.3969","99.6950","6331.18"
"371","26.2984","1.8556","6372.89","6153.96","80.0603","3.3861","99.6950","6409.65"
"376","26.3834","1.8615","6459.42","6152.48","80.7665","3.3754","99.6950","6523.22"
"381","26.4684","1.8674","6578.39","6150.11","81.0802","3.3648","99.6950","6574.01"
"386","26.5534","1.8732","6730.94","6147.73","82.5773","3.3542","99.6950","6819"
"391","26.6384","1.8791","6908.03","6145.36","82.4427","3.3437","99.6950","6796.8"
"396","26.7234","1.8850","7085.19","6142.12","84.3072","3.3332","99.6950","7107.71"
"401","26.8084","1.8909","7221.37","6138.87","85.0193","3.3228","99.6950","7228.28"
"406","26.8934","1.8968","7267.63","6135.63","86.6330","3.3125","99.6950","7505.28"
"411","26.9784","1.9027","7201.8","6131.56","85.1483","3.3023","99.6950","7250.24"
"416","27.0634","1.9086","7051.21","6127.49","83.3176","3.2921","99.6950","6941.83"
"421","27.1484","1.9144","6865.05","6123.42","82.3671","3.2820","99.6950","6784.34"
"426","27.2334","1.9203","6682.29","6118.55","81.7735","3.2720","99.6950","6686.9"
"431","27.3184","1.9262","6526.01","6113.68","80.2670","3.2620","99.6950","6442.8"
"436","27.4034","1.9321","6403.32","6108.81","79.5760","3.2520","99.6950","6332.34"
"441","27.4884","1.9380","6313.24","6103.94","79.3538","3.2422","99.6950","6297.02"
"446","27.5734","1.9438","6250.32","6099.07","78.8952","3.2324","99.6950","6224.44"
"451","27.6584","1.9497","6207.33","6094.2","79.0505","3.2226","99.6950","6248.97"
"456","27.7434","1.9556","6176.85","6088.54","78.8314","3.2130","99.6950","6214.39"
"461","27.8284","1.9615","6154.7","6082.87","78.3128","3.2033","99.6950","6132.89"
"466","27.9134","1.9673","6137.55","6077.21","78.7165","3.1938","99.6950","6196.28"
"471","27.9984","1.9732","6122.65","6070.78","78.9313","3.1843","99.6950","6230.14"
"476","28.0834","1.9791","6109.66","6064.35","78.5509","3.1748","99.6950","6170.24"
"481","28.1684","1.9849","6097.95","6057.92","77.7230","3.1654","99.6950","6040.87"
"486","28.2534","1.9908","6086.43","6050.76","78.3376","3.1561","99.6950","6136.79"
"491","28.3384","1.9967","6075.67","6043.61","78.4933","3.1468","99.6950","6161.2"
"496","28.4234","2.0025","6065.45","6036.45","78.3757","3.1376","99.6950","6142.75"
"501","28.5084","2.0084","6054.95","6028.59","77.2809","3.1284","99.6950","5972.33"
"506","28.5934","2.0143","6044.82","6020.73","77.7178","3.1193","99.6950","6040.06"
"511","28.6784","2.0201","6035","6012.87","78.2130","3.1103","99.6950","6117.28"
"516","28.7634","2.0260","6024.74","6004.32","77.8616","3.1013","99.6950","6062.43"
"521","28.8484","2.0319","6014.7","5995.78","78.4837","3.0923","99.6950","6159.69"
"526","28.9334","2.0377","6004.84","5987.23","77.6601","3.0835","99.6950","6031.09"
"531","29.0184","2.0436","5994.45","5978.01","77.7121","3.0746","99.6950","6039.17"
"536","29.1034","2.0494","5984.2","5968.79","77.6759","3.0658","99.6950","6033.54"
"541","29.1884","2.0553","5974.06","5959.56","77.7207","3.0571","99.6950","6040.5"
"546","29.2734","2.0611","5963.19","5949.5","77.7889","3.0484","99.6950","6051.12"
"551","29.3584","2.0670","5952.4","5939.44","77.0957","3.0398","99.6950","5943.75"
"556","29.4434","2.0728","5941.69","5929.38","76.5401","3.0312","99.6950","5858.39"
"561","29.5284","2.0787","5934.55","5922.82","76.5578","3.0227","99.6950","5861.09"
"566","29.6134","2.0845","5927.47","5916.25","77.4391","3.0142","99.6950","5996.81"
"571","29.6984","2.0904","5920.44","5909.69","77.4374","3.0057","99.6950","5996.55"
"576","29.7834","2.0962","5912.8","5902.46","77.1202","2.9974","99.6950","5947.53"
"581","29.8684","2.1021","5905.2","5895.24","78.0411","2.9890","99.6950","6090.41"
"586","29.9534","2.1079","5897.64","5888.01","77.2005","2.9807","99.6950","5959.91"
"591","30.0384","2.1138","5890.12","5880.78","76.5415","2.9725","99.6950","5858.6"
"596","30.1234","2.1196","5882.31","5873.56","77.5300","2.9643","99.6950","6010.9"
"601","30.2084","2.1255","5874.73","5866.33","76.6210","2.9562","99.6950","5870.77"
"606","30.2934","2.1313","5866.67","5858.44","76.8951","2.9481","99.6950","5912.86"
"611","30.3784","2.1371","5858.63","5850.55","77.2893","2.9400","99.6950","5973.63"
"616","30.4634","2.1430","5850.62","5842.66","77.0751","2.9320","99.6950","5940.58"
"621","30.5484","2.1488","5841.81","5833.95","77.2420","2.9240","99.6950","5966.33"
"626","30.6334","2.1547","5833.03","5825.24","76.8907","2.9161","99.6950","5912.18"
"631","30.7184","2.1605","5824.27","5816.53","75.7052","2.9082","99.6950","5731.28"
"636","30.8034","2.1663","5824.97","5817.25","76.6144","2.9004","99.6950","5869.77"
"641","30.8884","2.1722","5825.69","5817.97","76.8439","2.8926","99.6950","5904.98"
"646","30.9734","2.1780","5826.44","5818.69","76.4275","2.8849","99.6950","5841.17"
"651","31.0584","2.1838","5826.69","5818.89","76.8037","2.8772","99.6950","5898.82"
"656","31.1434","2.1896","5826.98","5819.09","76.7573","2.8695","99.6950","5891.68"
"661","31.2284","2.1955","5827.29","5819.29","76.1307","2.8619","99.6950","5795.89"
"666","31.3134","2.2013","5827.01","5818.86","75.9721","2.8543","99.6950","5771.76"
"671","31.3984","2.2071","5826.77","5818.44","75.9264","2.8468","99.6950","5764.82"
"676","31.4834","2.2129","5826.56","5818.02","76.2139","2.8393","99.6950","5808.56"
"681","31.5684","2.2188","5826.46","5817.6","76.3516","2.8318","99.6950","5829.57"
"686","31.6534","2.2246","5826.38","5817.17","76.5865","2.8244","99.6950","5865.5"
"691","31.7384","2.2304","5826.31","5816.75","75.9603","2.8170","99.6950","5769.96"
"696","31.8234","2.2362","5825.33","5815.37","76.6105","2.8097","99.6950","5869.17"
"701","31.9084","2.2421","5824.41","5813.98","77.0435","2.8024","99.6950","5935.7"
"706","31.9934","2.2479","5823.57","5812.59","76.2772","2.7952","99.6950","5818.22"
"711","32.0784","2.2537","5822.13","5810.53","76.0204","2.7880","99.6950","5779.1"
"716","32.1634","2.2595","5820.78","5808.46","76.7656","2.7808","99.6950","5892.96"
"721","32.2484","2.2653","5819.55","5806.39","76.6079","2.7737","99.6950","5868.77"
"726","32.3334","2.2711","5818.45","5804.32","76.8854","2.7666","99.6950","5911.36"
"731","32.4184","2.2769","5817.51","5802.26","76.1039","2.7595","99.6950","5791.8"
"736","32.5034","2.2827","5816.99","5800.19","75.6860","2.7525","99.6950","5728.36"
"741","32.5884","2.2886","5820.56","5802.1","76.9724","2.7455","99.6950","5924.74"
"746","32.6734","2.2944","5824.32","5804.01","75.5823","2.7385","99.6950","5712.68"
"751","32.7584","2.3002","5828.44","5805.92","77.1462","2.7316","99.6950","5951.54"
"756","32.8434","2.3060","5832.26","5807.06","77.1603","2.7248","99.6950","5953.71"
"761","32.9284","2.3118","5836.71","5808.21","76.4700","2.7179","99.6950","5847.66"
"766","33.0134","2.3176","5842.05","5809.35","76.7123","2.7111","99.6950","5884.78"
"771","33.0984","2.3234","5847.98","5809.71","76.2438","2.7043","99.6950","5813.12"
"776","33.1834","2.3292","5856.19","5810.07","76.4564","2.6976","99.6950","5845.57"
"781","33.2684","2.3350","5868.22","5810.43","76.9720","2.6909","99.6950","5924.69"
"786","33.3534","2.3408","5885.75","5809.98","76.3511","2.6842","99.6950","5829.49"
"791","33.4384","2.3466","5913.18","5809.53","76.5202","2.6776","99.6950","5855.34"
"796","33.5234","2.3524","5954.8","5809.08","77.2428","2.6710","99.6950","5966.45"
"801","33.6084","2.3581","6013.77","5807.8","77.8063","2.6645","99.6950","6053.82"
"806","33.6934","2.3639","6091.84","5806.53","77.6211","2.6579","99.6950","6025.03"
"811","33.7784","2.3697","6187.74","5805.25","79.5287","2.6514","99.6950","6324.82"
"816","33.8634","2.3755","6291.08","5803.98","79.1059","2.6450","99.6950","6257.74"
"821","33.9484","2.3813","6380.79","5802.7","80.0632","2.6385","99.6950","6410.12"
"826","34.0334","2.3871","6429.9","5801.42","80.4572","2.6322","99.6950","6473.36"
"831","34.1184","2.3929","6418.87","5799.33","80.0023","2.6258","99.6950","6400.36"
"836","34.2034","2.3987","6352.81","5797.23","79.6417","2.6195","99.6950","6342.81"
"841","34.2884","2.4044","6255.11","5795.13","78.4375","2.6132","99.6950","6152.45"
"846","34.3734","2.4102","6150.23","5792.19","77.6210","2.6069","99.6950","6025.02"
"851","34.4584","2.4160","6055.57","5789.25","77.5782","2.6007","99.6950","6018.37"
"856","34.5434","2.4218","5978.54","5786.32","77.7981","2.5944","99.6950","6052.54"
"861","34.6284","2.4276","5919.54","5782.54","77.2612","2.5883","99.6950","5969.29"
"866","34.7134","2.4333","5877.15","5778.77","76.7457","2.5821","99.6950","5889.9"
"871","34.7984","2.4391","5847.63","5774.99","76.8860","2.5760","99.6950","5911.45"
"876","34.8834","2.4449","5826.32","5770.4","76.6339","2.5699","99.6950","5872.75"
"881","34.9684","2.4507","5810.89","5765.8","76.3472","2.5639","99.6950","5828.89"
"886","35.0534","2.4564","5799.15","5761.21","76.2619","2.5579","99.6950","5815.87"
"891","35.1384","2.4622","5789.03","5755.84","75.6439","2.5519","99.6950","5722"
"896","35.2234","2.4680","5780.64","5750.47","76.2443","2.5459","99.6950","5813.2"
"901","35.3084","2.4737","5773.76","5745.1","75.5184","2.5400","99.6950","5703.03"
"906","35.3934","2.4795","5771.21","5742.55","76.1046","2.5341","99.6950","5791.91"
"911","35.4784","2.4853","5770.14","5740.01","75.5736","2.5282","99.6950","5711.37"
"916","35.5634","2.4910","5770.24","5737.46","77.0666","2.5223","99.6950","5939.26"
"921","35.6484","2.4968","5769.81","5734.04","75.4874","2.5165","99.6950","5698.35"
"926","35.7334","2.5025","5768.19","5730.61","75.8777","2.5107","99.6950","5757.42"
"931","35.8184","2.5083","5763.78","5727.18","77.2413","2.5050","99.6950","5966.23"
"936","35.9034","2.5141","5756.56","5723.76","76.0002","2.4992","99.6950","5776.02"
"941","35.9884","2.5198","5747.97","5720.33","75.7303","2.4935","99.6950","5735.07"
"946","36.0734","2.5256","5739.48","5716.9","75.6266","2.4878","99.6950","5719.38"
"951","36.1584","2.5313","5733.37","5714.97","75.7305","2.4822","99.6950","5735.11"
"956","36.2434","2.5371","5728.38","5713.03","75.7792","2.4766","99.6950","5742.48"
"961","36.3284","2.5428","5724.45","5711.09","75.3788","2.4710","99.6950","5681.96"
"966","36.4134","2.5486","5721.22","5709.15","75.0419","2.4654","99.6950","5631.28"
"971","36.4984","2.5543","5718.45","5707.21","75.9518","2.4598","99.6950","5768.67"
"976","36.5834","2.5601","5715.98","5705.27","75.8333","2.4543","99.6950","5750.69"
"981","36.6684","2.5658","5713.42","5703.04","75.7095","2.4488","99.6950","5731.92"
"986","36.7534","2.5715","5710.99","5700.8","76.0447","2.4434","99.6950","5782.8"
"991","36.8384","2.5773","5708.67","5698.56","75.0697","2.4379","99.6950","5635.46"
"996","36.9234","2.5830","5706.46","5696.33","76.0424","2.4325","99.6950","5782.44"
"1001","37.0084","2.5888","5704.35","5694.09","75.8749","2.4271","99.6950","5757.01"
"1006","37.0934","2.5945","5702.36","5691.85","76.2245","2.4217","99.6950","5810.17"
"1011","37.1784","2.6002","5699.64","5688.78","75.6834","2.4164","99.6950","5727.98"
"1016","37.2634","2.6060","5697.08","5685.7","75.9636","2.4111","99.6950","5770.46"
"1021","37.3484","2.6117","5694.71","5682.62","75.6076","2.4058","99.6950","5716.51"
"1026","37.4334","2.6174","5699.79","5686.72","76.4121","2.4005","99.6950","5838.8"
"1031","37.5184","2.6232","5705.31","5690.83","75.4951","2.3953","99.6950","5699.51"
"1036","37.6034","2.6289","5711.49","5694.93","75.4099","2.3901","99.6950","5686.65"
"1041","37.6884","2.6346","5717.92","5698.25","75.2494","2.3849","99.6950","5662.47"
"1046","37.7734","2.6403","5725.86","5701.56","76.2432","2.3797","99.6950","5813.03"
"1051","37.8584","2.6461","5735.82","5704.88","76.3020","2.3745","99.6950","5821.99"
"1056","37.9434","2.6518","5747.39","5707.37","75.4376","2.3694","99.6950","5690.84"
"1061","38.0284","2.6575","5761.51","5709.85","75.7884","2.3643","99.6950","5743.88"
"1066","38.1134","2.6632","5777.66","5712.33","75.6779","2.3592","99.6950","5727.15"
"1071","38.1984","2.6689","5793.53","5713.93","76.5367","2.3542","99.6950","5857.86"
"1076","38.2834","2.6747","5807.41","5715.53","76.2214","2.3492","99.6950","5809.7"
"1081","38.3684","2.6804","5816.35","5717.13","76.4277","2.3441","99.6950","5841.19"
"1086","38.4534","2.6861","5818.42","5717.84","76.1075","2.3392","99.6950","5792.35"
"1091","38.5384","2.6918","5816.91","5718.54","76.3786","2.3342","99.6950","5833.69"
"1096","38.6234","2.6975","5816.34","5719.24","75.7235","2.3293","99.6950","5734.05"
"1101","38.7084","2.7032","5821.16","5719.95","76.5392","2.3243","99.6950","5858.24"
"1106","38.7934","2.7089","5834.48","5720.65","75.6449","2.3194","99.6950","5722.15"
"1111","38.8784","2.7146","5857.63","5721.35","77.1133","2.3146","99.6950","5946.46"
"1116","38.9634","2.7203","5888.76","5721.16","77.2131","2.3097","99.6950","5961.87"
"1121","39.0484","2.7260","5924.76","5720.96","76.8010","2.3049","99.6950","5898.39"
"1126","39.1334","2.7317","5957.71","5720.76","76.7544","2.3001","99.6950","5891.24"
"1131","39.2184","2.7374","5975.76","5719.65","77.7566","2.2953","99.6950","6046.09"
"1136","39.3034","2.7431","5971.48","5718.54","77.5977","2.2905","99.6950","6021.4"
"1141","39.3884","2.7488","5945.62","5717.43","77.9072","2.2858","99.6950","6069.53"
"1146","39.4734","2.7545","5905.93","5715.41","76.8450","2.2810","99.6950","5905.16"
"1151","39.5584","2.7602","5863.14","5713.39","76.2008","2.2763","99.6950","5806.56"
"1156","39.6434","2.7659","5824.05","5711.38","75.7439","2.2716","99.6950","5737.14"
"1161","39.7284","2.7716","5791.01","5708.51","76.1912","2.2670","99.6950","5805.09"
"1166","39.8134","2.7773","5765.5","5705.65","76.0801","2.2623","99.6950","5788.18"
"1171","39.8984","2.7830","5746.75","5702.79","75.7664","2.2577","99.6950","5740.54"
"1176","39.9834","2.7887","5732.54","5699.19","74.9496","2.2531","99.6950","5617.45"
"1181","40.0684","2.7944","5722.06","5695.59","75.9946","2.2485","99.6950","5775.19"
"1186","40.1534","2.8000","5714.04","5691.99","75.5190","2.2440","99.6950","5703.12"
"1191","40.2384","2.8057","5708.33","5689.14","75.9071","2.2394","99.6950","5761.89"
"1196","40.3234","2.8114","5703.61","5686.3","76.0241","2.2349","99.6950","5779.66"
"1201","40.4084","2.8171","5699.59","5683.45","75.6130","2.2304","99.6950","5717.33"
"1206","40.4934","2.8228","5695.52","5680.01","75.1008","2.2259","99.6950","5640.13"
"1211","40.5784","2.8284","5691.98","5676.58","75.7185","2.2214","99.6950","5733.29"
"1216","40.6634","2.8341","5689.08","5673.14","75.4314","2.2170","99.6950","5689.89"
"1221","40.7484","2.8398","5687.11","5669.71","74.8164","2.2126","99.6950","5597.49"
"1226","40.8334","2.8455","5686.62","5666.27","75.2187","2.2081","99.6950","5657.85"
"1231","40.9184","2.8511","5687.84","5662.83","76.2293","2.2038","99.6950","5810.91"
"1236","41.0034","2.8568","5691.47","5658.81","75.8119","2.1994","99.6950","5747.44"
"1241","41.0884","2.8625","5698.02","5654.78","76.4774","2.1950","99.6950","5848.79"
"1246","41.1734","2.8681","5705.86","5650.75","75.0709","2.1907","99.6950","5635.64"
"1251","41.2584","2.8738","5717.78","5652.82","75.2535","2.1864","99.6950","5663.09"
"1256","41.3434","2.8795","5723.26","5654.9","76.3324","2.1821","99.6950","5826.64"
"1261","41.4284","2.8851","5720.49","5656.97","75.6676","2.1778","99.6950","5725.58"
"1266","41.5134","2.8908","5711.42","5658.5","75.7524","2.1735","99.6950","5738.42"
"1271","41.5984","2.8964","5700.77","5660.02","75.2017","2.1693","99.6950","5655.3"
"1276","41.6834","2.9021","5691.54","5661.55","75.3425","2.1651","99.6950","5676.49"
"1281","41.7684","2.9077","5684.42","5662.54","75.9438","2.1608","99.6950","5767.46"
"1286","41.8534","2.9134","5680","5663.52","75.5994","2.1567","99.6950","5715.27"
"1291","41.9384","2.9190","5677.74","5664.51","75.4533","2.1525","99.6950","5693.2"
"1296","42.0234","2.9247","5676.37","5664.86","74.9937","2.1483","99.6950","5624.05"
"1301","42.1084","2.9303","5676.01","5665.22","74.9890","2.1442","99.6950","5623.35"
"1306","42.1934","2.9360","5676.38","5665.57","75.4914","2.1401","99.6950","5698.95"
"1311","42.2784","2.9416","5676.69","5665.18","75.4102","2.1360","99.6950","5686.7"
"1316","42.3634","2.9473","5677.86","5664.78","75.8466","2.1319","99.6950","5752.71"
"1321","42.4484","2.9529","5680.24","5664.38","75.3114","2.1278","99.6950","5671.81"
"1326","42.5334","2.9586","5683.47","5663.16","74.4273","2.1237","99.6950","5539.43"
"1331","42.6184","2.9642","5688.86","5661.93","76.4300","2.1197","99.6950","5841.55"
"1336","42.7034","2.9698","5696.72","5660.71","76.0249","2.1157","99.6950","5779.78"
"1341","42.7884","2.9755","5706.93","5659.49","75.6726","2.1117","99.6950","5726.34"
"1346","42.8734","2.9811","5718.66","5658.26","76.0942","2.1077","99.6950","5790.32"
"1351","42.9584","2.9867","5729.92","5657.04","75.1333","2.1037","99.6950","5645.01"
"1356","43.0434","2.9924","5736.74","5654.99","75.4635","2.0997","99.6950","5694.75"
"1361","43.1284","2.9980","5736.85","5652.94","75.2911","2.0958","99.6950","5668.74"
"1366","43.2134","3.0036","5729.54","5650.89","76.2850","2.0919","99.6950","5819.4"
"1371","43.2984","3.0092","5716.08","5647.94","75.6313","2.0880","99.6950","5720.1"
"1376","43.3834","3.0149","5700.73","5644.99","75.7758","2.0841","99.6950","5741.97"
"1381","43.4684","3.0205","5686.2","5642.03","75.4279","2.0802","99.6950","5689.37"
"1386","43.5534","3.0261","5673.01","5638.16","75.5842","2.0763","99.6950","5712.97"
"1391","43.6384","3.0317","5662.42","5634.28","75.4354","2.0725","99.6950","5690.51"
"1396","43.7234","3.0373","5653.92","5630.41","75.1368","2.0687","99.6950","5645.53"
"1401","43.8084","3.0429","5645.7","5625.7","75.1756","2.0648","99.6950","5651.38"
"1406","43.8934","3.0486","5637.79","5621","75.0452","2.0610","99.6950","5631.78"
"1411","43.9784","3.0542","5630","5616.3","75.0710","2.0572","99.6950","5635.65"
"1416","44.0634","3.0598","5627.4","5616.48","75.0661","2.0535","99.6950","5634.91"
"1421","44.1484","3.0654","5625.29","5616.67","75.5956","2.0497","99.6950","5714.7"
"1426","44.2334","3.0710","5623.72","5616.85","75.0191","2.0460","99.6950","5627.87"
"1431","44.3184","3.0766","5622.12","5616.52","75.8846","2.0423","99.6950","5758.47"
"1436","44.4034","3.0822","5620.9","5616.2","75.0741","2.0385","99.6950","5636.12"
"1441","44.4884","3.0878","5619.99","5615.88","75.0861","2.0348","99.6950","5637.93"
"1446","44.5734","3.0934","5619.2","5615.55","75.2725","2.0312","99.6950","5665.95"
"1451","44.6584","3.0990","5618.54","5615.23","75.3525","2.0275","99.6950","5678"
"1456","44.7434","3.1046","5617.92","5614.91","75.0269","2.0238","99.6950","5629.03"
"1461","44.8284","3.1102","5616.85","5614.08","75.7422","2.0202","99.6950","5736.89"
"1466","44.9134","3.1158","5615.81","5613.25","75.2584","2.0166","99.6950","5663.83"
"1471","44.9984","3.1214","5614.8","5612.42","74.3661","2.0130","99.6950","5530.32"
"1476","45.0834","3.1270","5613.38","5611.16","75.8197","2.0094","99.6950","5748.62"
"1481","45.1684","3.1325","5611.92","5609.9","75.1300","2.0058","99.6950","5644.51"
"1486","45.2534","3.1381","5610.5","5608.63","75.3233","2.0022","99.6950","5673.6"
"1491","45.3384","3.1437","5609.13","5607.37","74.8200","1.9986","99.6950","5598.03"
"1496","45.4234","3.1493","5608.37","5606.11","74.7978","1.9951","99.6950","5594.72"
"1501","45.5084","3.1549","5607.04","5604.85","75.0510","1.9916","99.6950","5632.65"
"1506","45.5934","3.1605","5611.71","5609.28","75.9191","1.9881","99.6950","5763.7"
"1511","45.6784","3.1660","5616.1","5613.71","75.4798","1.9846","99.6950","5697.21"
"1516","45.7634","3.1716","5620.5","5618.15","75.7782","1.9811","99.6950","5742.33"
"1521","45.8484","3.1772","5624.06","5621.74","75.6844","1.9776","99.6950","5728.12"
"1526","45.9334","3.1828","5627.64","5625.34","75.3343","1.9741","99.6950","5675.26"
"1531","46.0184","3.1883","5631","5628.93","75.0194","1.9707","99.6950","5627.91"
"1536","46.1034","3.1939","5633.64","5631.58","75.2075","1.9673","99.6950","5656.17"
"1541","46.1884","3.1995","5636.19","5634.24","75.1605","1.9638","99.6950","5649.11"
"1546","46.2734","3.2050","5638.85","5636.89","76.1555","1.9604","99.6950","5799.66"
"1551","46.3584","3.2106","5640.77","5638.8","75.4322","1.9570","99.6950","5690.02"
"1556","46.4434","3.2161","5642.7","5640.72","75.6510","1.9536","99.6950","5723.07"
"1561","46.5284","3.2217","5644.64","5642.64","75.7450","1.9503","99.6950","5737.31"
"1566","46.6134","3.2273","5645.84","5643.82","75.0060","1.9469","99.6950","5625.89"
"1571","46.6984","3.2328","5647.05","5645.01","75.8129","1.9436","99.6950","5747.59"
"1576","46.7834","3.2384","5648.27","5646.19","75.3448","1.9402","99.6950","5676.84"
"1581","46.8684","3.2439","5648.81","5646.7","74.6502","1.9369","99.6950","5572.66"
"1586","46.9534","3.2495","5649.31","5647.21","75.2756","1.9336","99.6950","5666.42"
"1591","47.0384","3.2550","5649.84","5647.72","75.5739","1.9303","99.6950","5711.41"
"1596","47.1234","3.2606","5649.72","5647.55","75.1183","1.9270","99.6950","5642.75"
"1601","47.2084","3.2661","5649.6","5647.37","75.7226","1.9237","99.6950","5733.91"
"1606","47.2934","3.2717","5649.48","5647.2","75.1912","1.9205","99.6950","5653.71"
"1611","47.3784","3.2772","5648.65","5646.3","74.8743","1.9172","99.6950","5606.15"
"1616","47.4634","3.2827","5647.82","5645.4","75.4632","1.9140","99.6950","5694.7"
"1621","47.5484","3.2883","5647","5644.5","75.4434","1.9108","99.6950","5691.7"
"1626","47.6334","3.2938","5646.19","5643.61","74.6838","1.9076","99.6950","5577.67"
"1631","47.7184","3.2994","5645.38","5642.71","74.7785","1.9044","99.6950","5591.83"
"1636","47.8034","3.3049","5644.59","5641.81","75.4781","1.9012","99.6950","5696.95"
"1641","47.8884","3.3104","5643.07","5640.19","74.4554","1.8980","99.6950","5543.61"
"1646","47.9734","3.3159","5641.57","5638.57","74.8821","1.8948","99.6950","5607.32"
"1651","48.0584","3.3215","5640.08","5636.95","75.4738","1.8917","99.6950","5696.29"
"1656","48.1434","3.3270","5637.85","5634.58","75.0264","1.8885","99.6950","5628.97"
"1661","48.2284","3.3325","5635.62","5632.2","75.0020","1.8854","99.6950","5625.3"
"1666","48.3134","3.3380","5633.42","5629.83","75.2153","1.8823","99.6950","5657.34"
"1671","48.3984","3.3436","5630.42","5626.64","74.9758","1.8792","99.6950","5621.36"
"1676","48.4834","3.3491","5627.44","5623.46","75.0391","1.8761","99.6950","5630.86"
"1681","48.5684","3.3546","5624.65","5620.28","74.6806","1.8730","99.6950","5577.18"
"1686","48.6534","3.3601","5620.9","5616.27","74.4633","1.8699","99.6950","5544.78"
"1691","48.7384","3.3656","5617.26","5612.26","75.4013","1.8669","99.6950","5685.36"
"1696","48.8234","3.3711","5613.58","5608.25","74.9409","1.8638","99.6950","5616.14"
"1701","48.9084","3.3766","5614.76","5609.05","75.0895","1.8608","99.6950","5638.44"
"1706","48.9934","3.3821","5615.99","5609.85","75.2601","1.8578","99.6950","5664.08"
"1711","49.0784","3.3876","5617.29","5610.65","75.0654","1.8547","99.6950","5634.81"
"1716","49.1634","3.3932","5621.98","5614.75","75.9375","1.8517","99.6950","5766.5"
"1721","49.2484","3.3987","5626.8","5618.84","75.5551","1.8487","99.6950","5708.57"
"1726","49.3334","3.4042","5631.86","5622.93","75.1275","1.8457","99.6950","5644.14"
"1731","49.4184","3.4097","5637.29","5627.03","74.9445","1.8428","99.6950","5616.67"
"1736","49.5034","3.4151","5643.42","5631.12","74.7320","1.8398","99.6950","5584.87"
"1741","49.5884","3.4206","5650.73","5635.21","75.3417","1.8368","99.6950","5676.37"
"1746","49.6734","3.4261","5659.35","5638.73","75.3162","1.8339","99.6950","5672.53"
"1751","49.7584","3.4316","5670.34","5642.25","75.4312","1.8310","99.6950","5689.87"
"1756","49.8434","3.4371","5683.98","5645.78","75.3038","1.8280","99.6950","5670.67"
"1761","49.9284","3.4426","5701.02","5650.88","75.7466","1.8251","99.6950","5737.55"
"1766","50.0134","3.4481","5717.67","5655.98","76.0478","1.8222","99.6950","5783.27"
"1771","50.0984","3.4536","5730.01","5661.08","75.7160","1.8193","99.6950","5732.91"
"1776","50.1834","3.4590","5734.3","5665.46","74.7502","1.8165","99.6950","5587.59"
"1781","50.2684","3.4645","5731.94","5669.83","75.3826","1.8136","99.6950","5682.53"
"1786","50.3534","3.4700","5726.21","5674.21","76.2880","1.8107","99.6950","5819.85"
"1791","50.4384","3.4755","5719.85","5677.88","74.9731","1.8079","99.6950","5620.96"
"1796","50.5234","3.4809","5715.61","5681.56","75.6199","1.8050","99.6950","5718.37"
"1801","50.6084","3.4864","5714.11","5685.23","75.9740","1.8022","99.6950","5772.05"
"1806","50.6934","3.4919","5714.4","5688.2","75.7152","1.7994","99.6950","5732.79"
"1811","50.7784","3.4974","5716.65","5691.17","75.7694","1.7966","99.6950","5740.99"
"1816","50.8634","3.5028","5720.31","5694.15","75.6953","1.7938","99.6950","5729.78"
"1821","50.9484","3.5083","5724.31","5696.39","75.9468","1.7910","99.6950","5767.91"
"1826","51.0334","3.5137","5729.24","5698.64","75.5424","1.7882","99.6950","5706.66"
"1831","51.1184","3.5192","5735.18","5700.88","75.8357","1.7854","99.6950","5751.06"
"1836","51.2034","3.5247","5741.83","5702.37","75.8053","1.7826","99.6950","5746.44"
"1841","51.2884","3.5301","5750.44","5703.86","75.6719","1.7799","99.6950","5726.24"
"1846","51.3734","3.5356","5762.46","5705.35","75.3799","1.7771","99.6950","5682.12"
"1851","51.4584","3.5410","5779.89","5706.84","76.3170","1.7744","99.6950","5824.29"
"1856","51.5434","3.5465","5805.93","5708.32","76.7825","1.7717","99.6950","5895.55"
"1861","51.6284","3.5519","5844.55","5709.81","76.8011","1.7690","99.6950","5898.41"
"1866","51.7134","3.5574","5899.22","5710.54","77.3049","1.7662","99.6950","5976.05"
"1871","51.7984","3.5628","5973.75","5711.27","78.0565","1.7635","99.6950","6092.81"
"1876","51.8834","3.5682","6068.11","5712","77.3609","1.7609","99.6950","5984.71"
"1881","51.9684","3.5737","6175.83","5711.94","78.6583","1.7582","99.6950","6187.13"
"1886","52.0534","3.5791","6283.19","5711.88","79.2900","1.7555","99.6950","6286.9"
"1891","52.1384","3.5846","6365.62","5711.82","80.5639","1.7528","99.6950","6490.54"
"1896","52.2234","3.5900","6395.93","5710.92","80.3644","1.7502","99.6950","6458.44"
"1901","52.3084","3.5954","6364.59","5710.02","79.4645","1.7475","99.6950","6314.61"
"1906","52.3934","3.6009","6283.58","5709.12","78.9916","1.7449","99.6950","6239.67"
"1911","52.4784","3.6063","6176.5","5707.33","77.9039","1.7423","99.6950","6069.02"
"1916","52.5634","3.6117","6067.66","5705.55","77.1581","1.7397","99.6950","5953.37"
"1921","52.6484","3.6171","5971.94","5703.76","77.9199","1.7371","99.6950","6071.51"
"1926","52.7334","3.6226","5894.65","5701.05","76.6292","1.7345","99.6950","5872.03"
"1931","52.8184","3.6280","5837.07","5698.33","77.2394","1.7319","99.6950","5965.93"
"1936","52.9034","3.6334","5796.35","5695.62","76.3060","1.7293","99.6950","5822.61"
"1941","52.9884","3.6388","5767.42","5691.94","76.2602","1.7267","99.6950","5815.62"
"1946","53.0734","3.6442","5747.28","5688.27","75.6601","1.7241","99.6950","5724.45"
"1951","53.1584","3.6496","5732.77","5684.6","76.9111","1.7216","99.6950","5915.32"
"1956","53.2434","3.6550","5720.79","5679.98","76.1183","1.7190","99.6950","5794"
"1961","53.3284","3.6605","5710.92","5675.37","75.2274","1.7165","99.6950","5659.16"
"1966","53.4134","3.6659","5702.39","5670.76","74.7316","1.7140","99.6950","5584.81"
"1971","53.4984","3.6713","5693.94","5665.32","74.5806","1.7114","99.6950","5562.27"
"1976","53.5834","3.6767","5686.14","5659.89","74.8921","1.7089","99.6950","5608.83"
"1981","53.6684","3.6821","5678.87","5654.45","75.6550","1.7064","99.6950","5723.68"
"1986","53.7534","3.6875","5679.14","5656.14","76.0852","1.7039","99.6950","5788.95"
"1991","53.8384","3.6929","5679.79","5657.84","75.0664","1.7014","99.6950","5634.96"
"1996","53.9234","3.6983","5680.79","5659.53","76.1178","1.6990","99.6950","5793.92"
"2001","54.0084","3.7036","5682.11","5661.22","75.3467","1.6965","99.6950","5677.13"
"2006","54.0934","3.7090","5683.76","5662.91","75.7326","1.6940","99.6950","5735.43"
"2011","54.1784","3.7144","5685.76","5664.6","75.2716","1.6916","99.6950","5665.82"
"2016","54.2634","3.7198","5690.46","5668.57","75.5480","1.6891","99.6950","5707.5"
"2021","54.3484","3.7252","5695.73","5672.54","75.2529","1.6867","99.6950","5663"
"2026","54.4334","3.7306","5701.81","5676.5","75.4294","1.6842","99.6950","5689.59"
"2031","54.5184","3.7360","5708.48","5679.73","75.4638","1.6818","99.6950","5694.78"
"2036","54.6034","3.7413","5717.32","5682.96","75.9853","1.6794","99.6950","5773.76"
"2041","54.6884","3.7467","5729.64","5686.19","75.9410","1.6770","99.6950","5767.03"
"2046","54.7734","3.7521","5746.36","5688.57","76.1422","1.6746","99.6950","5797.63"
"2051","54.8584","3.7575","5770.26","5690.95","76.2462","1.6722","99.6950","5813.48"
"2056","54.9434","3.7628","5802.73","5693.33","75.7673","1.6698","99.6950","5740.69"
"2061","55.0284","3.7682","5842.68","5694.78","76.6625","1.6674","99.6950","5877.13"
"2066","55.1134","3.7736","5887.87","5696.23","76.7595","1.6651","99.6950","5892.02"
"2071","55.1984","3.7789","5930.55","5697.68","77.5587","1.6627","99.6950","6015.35"
"2076","55.2834","3.7843","5958.3","5698.2","78.0946","1.6603","99.6950","6098.77"
"2081","55.3684","3.7896","5963.11","5698.73","77.5826","1.6580","99.6950","6019.06"
"2086","55.4534","3.7950","5944.4","5699.26","77.3281","1.6557","99.6950","5979.64"
"2091","55.5384","3.8003","5908.48","5698.9","76.7807","1.6533","99.6950","5895.28"
"2096","55.6234","3.8057","5866.34","5698.55","76.4379","1.6510","99.6950","5842.75"
"2101","55.7084","3.8110","5826.18","5698.2","76.3093","1.6487","99.6950","5823.11"
"2106","55.7934","3.8164","5791.9","5697.01","75.9947","1.6464","99.6950","5775.19"
"2111","55.8784","3.8217","5765.51","5695.83","76.0604","1.6441","99.6950","5785.19"
"2116","55.9634","3.8271","5746.65","5694.64","75.8315","1.6418","99.6950","5750.42"
"2121","56.0484","3.8324","5733.87","5693.45","76.0735","1.6395","99.6950","5787.17"
"2126","56.1334","3.8378","5725.59","5692.26","75.2194","1.6372","99.6950","5657.96"
"2131","56.2184","3.8431","5720.32","5691.07","75.9674","1.6349","99.6950","5771.04"
"2136","56.3034","3.8484","5715.88","5689.05","76.0707","1.6327","99.6950","5786.75"
"2141","56.3884","3.8538","5712","5687.02","76.1853","1.6304","99.6950","5804.2"
"2146","56.4734","3.8591","5708.07","5685","75.4227","1.6281","99.6950","5688.58"
"2151","56.5584","3.8644","5703.21","5682.18","76.3048","1.6259","99.6950","5822.42"
"2156","56.6434","3.8698","5698.44","5679.36","75.0121","1.6237","99.6950","5626.82"
"2161","56.7284","3.8751","5694.04","5676.53","76.1366","1.6214","99.6950","5796.78"
"2166","56.8134","3.8804","5689.42","5672.95","74.9061","1.6192","99.6950","5610.93"
"2171","56.8984","3.8857","5685.38","5669.38","75.8135","1.6170","99.6950","5747.68"
"2176","56.9834","3.8911","5682","5665.8","75.1174","1.6148","99.6950","5642.63"
"2181","57.0684","3.8964","5686.18","5669","75.9898","1.6126","99.6950","5774.46"
"2186","57.1534","3.9017","5691.44","5672.2","75.4947","1.6104","99.6950","5699.45"
"2191","57.2384","3.9070","5698.34","5675.4","75.9473","1.6082","99.6950","5768"
"2196","57.3234","3.9123","5706.93","5677.85","75.8078","1.6060","99.6950","5746.82"
"2201","57.4084","3.9176","5718.86","5680.3","75.5776","1.6038","99.6950","5711.97"
"2206","57.4934","3.9229","5734.9","5682.75","76.2954","1.6017","99.6950","5820.99"
"2211","57.5784","3.9282","5754.32","5684.47","75.3202","1.5995","99.6950","5673.13"
"2216","57.6634","3.9335","5776.58","5686.18","75.6199","1.5973","99.6950","5718.36"
"2221","57.7484","3.9388","5798.77","5687.89","76.0564","1.5952","99.6950","5784.57"
"2226","57.8334","3.9441","5817.39","5689.6","76.1741","1.5931","99.6950","5802.5"
"2231","57.9184","3.9494","5828.96","5691.31","76.5059","1.5909","99.6950","5853.15"
"2236","58.0034","3.9547","5830.69","5693.03","76.8554","1.5888","99.6950","5906.76"
"2241","58.0884","3.9600","5821.69","5694","76.6250","1.5867","99.6950","5871.39"
"2246","58.1734","3.9653","5805.41","5694.97","76.5701","1.5845","99.6950","5862.97"
"2251","58.2584","3.9706","5785.96","5695.95","77.1369","1.5824","99.6950","5950.11"
"2256","58.3434","3.9759","5766.09","5696.19","76.5038","1.5803","99.6950","5852.83"
"2261","58.4284","3.9811","5749.05","5696.44","75.9931","1.5782","99.6950","5774.95"
"2266","58.5134","3.9864","5735.61","5696.68","75.3617","1.5761","99.6950","5679.39"
"2271","58.5984","3.9917","5725.06","5696.18","75.9415","1.5741","99.6950","5767.11"
"2276","58.6834","3.9970","5717.54","5695.68","75.0456","1.5720","99.6950","5631.84"
"2281","58.7684","4.0022","5712.36","5695.17","76.0241","1.5699","99.6950","5779.66"
"2286","58.8534","4.0075","5708.02","5693.86","75.6095","1.5678","99.6950","5716.79"
"2291","58.9384","4.0128","5704.83","5692.55","75.6255","1.5658","99.6950","5719.21"
"2296","59.0234","4.0181","5701.89","5691.24","76.0578","1.5637","99.6950","5784.79"
"2301","59.1084","4.0233","5699.45","5689.19","75.6281","1.5617","99.6950","5719.62"
"2306","59.1934","4.0286","5697.29","5687.14","75.7499","1.5597","99.6950","5738.05"
"2311","59.2784","4.0338","5695.89","5685.09","75.4174","1.5576","99.6950","5687.79"
"2316","59.3634","4.0391","5698.62","5686.93","75.9808","1.5556","99.6950","5773.09"
"2321","59.4484","4.0444","5701.17","5688.76","75.6088","1.5536","99.6950","5716.69"
"2326","59.5334","4.0496","5703.06","5690.6","76.2367","1.5516","99.6950","5812.04"
"2331","59.6184","4.0549","5703.37","5691.66","75.1685","1.5495","99.6950","5650.3"
"2336","59.7034","4.0601","5703.08","5692.72","75.5266","1.5475","99.6950","5704.27"
"2341","59.7884","4.0654","5702.77","5693.78","75.6601","1.5455","99.6950","5724.44"
"2346","59.8734","4.0706","5701.59","5694.07","76.1596","1.5436","99.6950","5800.28"
"2351","59.9584","4.0758","5700.81","5694.35","75.6908","1.5416","99.6950","5729.1"
"2356","60.0434","4.0811","5700.27","5694.63","75.6253","1.5396","99.6950","5719.18"
"2361","60.1284","4.0863","5700","5694.91","76.1267","1.5376","99.6950","5795.27"
"2366","60.2134","4.0916","5699.94","5695.19","76.2958","1.5356","99.6950","5821.05"
"2371","60.2984","4.0968","5700.01","5695.48","75.8028","1.5337","99.6950","5746.07"
"2376","60.3834","4.1020","5699.39","5694.98","76.0171","1.5317","99.6950","5778.6"
"2381","60.4684","4.1072","5698.83","5694.48","76.0087","1.5298","99.6950","5777.32"
"2386","60.5534","4.1125","5698.31","5693.98","76.0720","1.5278","99.6950","5786.95"
"2391","60.6384","4.1177","5697.05","5692.7","76.0266","1.5259","99.6950","5780.04"
"2396","60.7234","4.1229","5695.81","5691.41","76.0376","1.5240","99.6950","5781.71"
"2401","60.8084","4.1281","5694.61","5690.13","75.3273","1.5220","99.6950","5674.2"
"2406","60.8934","4.1334","5698.49","5693.95","75.3783","1.5201","99.6950","5681.89"
"2411","60.9784","4.1386","5702.47","5697.77","75.4881","1.5182","99.6950","5698.45"
"2416","61.0634","4.1438","5706.46","5701.59","75.8973","1.5163","99.6950","5760.4"
"2421","61.1484","4.1490","5709.81","5704.68","75.7433","1.5144","99.6950","5737.04"
"2426","61.2334","4.1542","5713.21","5707.78","74.8086","1.5125","99.6950","5596.33"
"2431","61.3184","4.1594","5716.69","5710.87","75.7411","1.5106","99.6950","5736.71"
"2436","61.4034","4.1646","5719.52","5713.22","76.4954","1.5087","99.6950","5851.55"
"2441","61.4884","4.1698","5722.47","5715.57","75.1919","1.5068","99.6950","5653.82"
"2446","61.5734","4.1750","5725.62","5717.92","75.7236","1.5050","99.6950","5734.07"
"2451","61.6584","4.1802","5728.37","5719.57","75.9188","1.5031","99.6950","5763.66"
"2456","61.7434","4.1854","5731.61","5721.22","75.6406","1.5012","99.6950","5721.5"
"2461","61.8284","4.1906","5735.65","5722.88","75.8323","1.4994","99.6950","5750.55"
"2466","61.9134","4.1958","5740.23","5723.86","75.9985","1.4975","99.6950","5775.77"
"2471","61.9984","4.2010","5746.56","5724.84","75.9269","1.4957","99.6950","5764.9"
"2476","62.0834","4.2062","5755.16","5725.82","76.4257","1.4938","99.6950","5840.89"
"2481","62.1684","4.2113","5766.21","5726.8","76.3828","1.4920","99.6950","5834.33"
"2486","62.2534","4.2165","5779.93","5727.78","76.1521","1.4901","99.6950","5799.14"
"2491","62.3384","4.2217","5795.2","5728.76","74.7081","1.4883","99.6950","5581.3"
"2496","62.4234","4.2269","5809.47","5729.06","76.8419","1.4865","99.6950","5904.68"
"2501","62.5084","4.2320","5820.23","5729.37","76.1432","1.4847","99.6950","5797.79"
"2506","62.5934","4.2372","5824.78","5729.68","76.2638","1.4829","99.6950","5816.16"
"2511","62.6784","4.2424","5822.11","5729.33","76.2039","1.4811","99.6950","5807.04"
"2516","62.7634","4.2476","5814.69","5728.99","76.0721","1.4792","99.6950","5786.96"
"2521","62.8484","4.2527","5805.21","5728.64","76.1386","1.4775","99.6950","5797.08"
"2526","62.9334","4.2579","5795.23","5727.64","75.8030","1.4757","99.6950","5746.09"
"2531","63.0184","4.2630","5786.1","5726.64","76.3954","1.4739","99.6950","5836.26"
"2536","63.1034","4.2682","5777.47","5725.64","75.7272","1.4721","99.6950","5734.61"
"2541","63.1884","4.2733","5768.22","5723.85","75.8479","1.4703","99.6950","5752.91"
"2546","63.2734","4.2785","5759.25","5722.07","75.9175","1.4685","99.6950","5763.46"
"2551","63.3584","4.2837","5750.93","5720.28","76.7072","1.4668","99.6950","5883.99"
"2556","63.4434","4.2888","5742.81","5717.53","76.2432","1.4650","99.6950","5813.02"
"2561","63.5284","4.2939","5736.09","5714.78","76.5903","1.4633","99.6950","5866.08"
"2566","63.6134","4.2991","5730.87","5712.02","75.7222","1.4615","99.6950","5733.85"
"2571","63.6984","4.3042","5734.48","5716.6","75.9611","1.4598","99.6950","5770.09"
"2576","63.7834","4.3094","5739.56","5721.17","76.3634","1.4580","99.6950","5831.36"
"2581","63.8684","4.3145","5746.14","5725.75","76.1592","1.4563","99.6950","5800.22"
"2586","63.9534","4.3196","5754.14","5730.32","75.1324","1.4546","99.6950","5644.88"
"2591","64.0384","4.3248","5763.22","5734.89","76.1293","1.4528","99.6950","5795.67"
"2596","64.1234","4.3299","5772.62","5739.47","77.2468","1.4511","99.6950","5967.07"
"2601","64.2084","4.3350","5780.64","5743.43","76.4357","1.4494","99.6950","5842.41"
"2606","64.2934","4.3401","5787.56","5747.39","76.3215","1.4477","99.6950","5824.97"
"2611","64.3784","4.3453","5794.31","5751.36","75.5292","1.4460","99.6950","5704.66"
"2616","64.4634","4.3504","5802.18","5755","76.3807","1.4443","99.6950","5834.01"
"2621","64.5484","4.3555","5813.21","5758.63","76.1342","1.4426","99.6950","5796.42"
"2626","64.6334","4.3606","5828.57","5762.27","76.7402","1.4409","99.6950","5889.05"
"2631","64.7184","4.3657","5847.38","5765.01","76.4710","1.4392","99.6950","5847.81"
"2636","64.8034","4.3708","5868.93","5767.75","76.1045","1.4375","99.6950","5791.9"
"2641","64.8884","4.3759","5889.97","5770.49","75.9066","1.4358","99.6950","5761.81"
"2646","64.9734","4.3811","5904.67","5772.49","76.3663","1.4342","99.6950","5831.81"
"2651","65.0584","4.3862","5909.77","5774.5","76.6909","1.4325","99.6950","5881.5"
"2656","65.1434","4.3913","5904.64","5776.51","76.2696","1.4308","99.6950","5817.05"
"2661","65.2284","4.3964","5891.8","5778.52","77.0352","1.4292","99.6950","5934.42"
"2666","65.3134","4.4014","5875.18","5780.53","76.5048","1.4275","99.6950","5852.99"
"2671","65.3984","4.4065","5858.7","5782.54","75.9877","1.4259","99.6950","5774.13"
"2676","65.4834","4.4116","5844.24","5783.82","76.2752","1.4242","99.6950","5817.91"
"2681","65.5684","4.4167","5833.73","5785.1","76.5755","1.4226","99.6950","5863.81"
"2686","65.6534","4.4218","5827.42","5786.38","75.7478","1.4210","99.6950","5737.73"
"2691","65.7384","4.4269","5824.43","5786.88","76.4275","1.4193","99.6950","5841.16"
"2696","65.8234","4.4320","5825.47","5787.39","76.3282","1.4177","99.6950","5825.99"
"2701","65.9084","4.4370","5830.84","5787.9","76.0815","1.4161","99.6950","5788.39"
"2706","65.9934","4.4421","5840.5","5787.59","76.1068","1.4145","99.6950","5792.24"
"2711","66.0784","4.4472","5856.29","5787.28","75.9965","1.4128","99.6950","5775.47"
"2716","66.1634","4.4523","5879.12","5786.97","76.8580","1.4112","99.6950","5907.15"
"2721","66.2484","4.4573","5908.13","5785.74","76.6366","1.4096","99.6950","5873.17"
"2726","66.3334","4.4624","5942.63","5784.52","77.0447","1.4080","99.6950","5935.88"
"2731","66.4184","4.4675","5978.25","5783.29","76.7036","1.4064","99.6950","5883.45"
"2736","66.5034","4.4725","6006.47","5781.34","77.5246","1.4048","99.6950","6010.07"
"2741","66.5884","4.4776","6019.3","5779.4","77.0795","1.4033","99.6950","5941.25"
"2746","66.6734","4.4826","6012.67","5777.45","77.5576","1.4017","99.6950","6015.18"
"2751","66.7584","4.4877","5988.24","5774.79","77.2527","1.4001","99.6950","5967.97"
"2756","66.8434","4.4927","5952.72","5772.13","76.5220","1.3985","99.6950","5855.61"
"2761","66.9284","4.4978","5913.38","5769.47","76.6893","1.3969","99.6950","5881.25"
"2766","67.0134","4.5028","5876.29","5766.81","76.9145","1.3954","99.6950","5915.84"
"2771","67.0984","4.5079","5844.81","5764.15","76.1752","1.3938","99.6950","5802.66"
"2776","67.1834","4.5129","5819.95","5761.49","76.0994","1.3923","99.6950","5791.11"
"2781","67.2684","4.5180","5800.56","5758.12","75.5891","1.3907","99.6950","5713.71"
"2786","67.3534","4.5230","5786.19","5754.75","75.9441","1.3892","99.6950","5767.51"
"2791","67.4384","4.5280","5775.47","5751.37","75.5187","1.3876","99.6950","5703.07"
"2796","67.5234","4.5331","5769.76","5750.54","75.5238","1.3861","99.6950","5703.85"
"2801","67.6084","4.5381","5765.61","5749.71","75.6551","1.3845","99.6950","5723.7"
"2806","67.6934","4.5431","5762.43","5748.88","75.9554","1.3830","99.6950","5769.22"
"2811","67.7784","4.5481","5759.84","5748.05","76.4287","1.3815","99.6950","5841.34"
"2816","67.8634","4.5532","5757.63","5747.22","76.0568","1.3800","99.6950","5784.64"
"2821","67.9484","4.5582","5755.69","5746.39","75.6710","1.3784","99.6950","5726.1"
"2826","68.0334","4.5632","5753","5744.62","75.9807","1.3769","99.6950","5773.07"
"2831","68.1184","4.5682","5750.45","5742.85","75.2789","1.3754","99.6950","5666.92"
"2836","68.2034","4.5732","5748.03","5741.08","75.7576","1.3739","99.6950","5739.21"
"2841","68.2884","4.5782","5745.11","5738.73","76.2662","1.3724","99.6950","5816.53"
"2846","68.3734","4.5832","5742.28","5736.37","75.1319","1.3709","99.6950","5644.81"
"2851","68.4584","4.5882","5739.52","5734.01","76.0470","1.3694","99.6950","5783.15"
"2856","68.5434","4.5932","5736.81","5731.65","75.5402","1.3679","99.6950","5706.32"
"2861","68.6284","4.5982","5734.17","5729.3","76.0107","1.3664","99.6950","5777.62"
"2866","68.7134","4.6032","5731.55","5726.94","76.6849","1.3649","99.6950","5880.57"
"2871","68.7984","4.6082","5728.3","5723.88","75.7565","1.3635","99.6950","5739.04"
"2876","68.8834","4.6132","5725.1","5720.82","75.4767","1.3620","99.6950","5696.73"
"2881","68.9684","4.6182","5721.96","5717.76","75.9964","1.3605","99.6950","5775.46"
"2886","69.0534","4.6232","5725.93","5721.72","75.7555","1.3591","99.6950","5738.89"
"2891","69.1384","4.6282","5730.03","5725.69","76.0831","1.3576","99.6950","5788.63"
"2896","69.2234","4.6332","5734.31","5729.65","75.9103","1.3561","99.6950","5762.37"
"2901","69.3084","4.6381","5738.85","5733.61","75.4373","1.3547","99.6950","5690.79"
"2906","69.3934","4.6431","5743.66","5737.57","75.4163","1.3532","99.6950","5687.62"
"2911","69.4784","4.6481","5748.97","5741.54","75.4141","1.3518","99.6950","5687.28"
"2916","69.5634","4.6531","5761.07","5751.89","75.8870","1.3503","99.6950","5758.84"
"2921","69.6484","4.6580","5773.56","5762.24","76.3713","1.3489","99.6950","5832.58"
"2926","69.7334","4.6630","5786.14","5772.6","76.9089","1.3475","99.6950","5914.98"
"2931","69.8184","4.6680","5798.33","5782.95","76.5329","1.3460","99.6950","5857.28"
"2936","69.9034","4.6729","5809.62","5793.31","75.0650","1.3446","99.6950","5634.75"
"2941","69.9884","4.6779","5817.63","5801.59","76.1818","1.3432","99.6950","5803.66"