File: herald_visualization/Delia_Scripts/CoF3/CoF3_100min_fitted_data.csv
2Theta,Intensity
20.0084,7218.78
20.0424,7206.21
20.0764,7194.58
20.1104,7182.02
20.1444,7169.93
20.1784,7157.37
20.2124,7144.81
20.2464,7132.25
20.2804,7119.53
20.3144,7106.65
20.3484,7093.78
20.3824,7080.9
20.4164,7068.026
20.4504,7055.152
20.4844,7042.28
20.5184,7029.41
20.5524,7016.53
20.5864,7003.663
20.6204,6990.79
20.6544,6977.923
20.6884,6965.05
20.7224,6952.19
20.7564,6939.32
20.7904,6926.29
20.8244,6913.111
20.8584,6899.93
20.8924,6886.75
20.9264,6873.57
20.9604,6860.39
20.9944,6847.21
21.0284,6834.03
21.0624,6826.875
21.0964,6819.72
21.1304,6812.56
21.1644,6805.4
21.1984,6798.25
21.2324,6791.1
21.2664,6783.94
21.3004,6776.65
21.3344,6769.23
21.3684,6761.8
21.4024,6754.38
21.4364,6746.96
21.4704,6739.54
21.5044,6732.12
21.5384,6724.71
21.5724,6717.29
21.6064,6709.88
21.6404,6702.47
21.6744,6695.07
21.7084,6687.66
21.7424,6680.26
21.7764,6672.86
21.8104,6665.32
21.8444,6657.65
21.8784,6649.98
21.9124,6642.32
21.9464,6634.65
21.9804,6626.993
22.0144,6619.34
22.0484,6611.68
22.0824,6603.69
22.1164,6595.71
22.1504,6587.72
22.1844,6579.74
22.2184,6571.77
22.2524,6563.8
22.2864,6555.84
22.3204,6547.94
22.3544,6540.109
22.3884,6532.29
22.4224,6524.47
22.4564,6516.66
22.4904,6508.855
22.5244,6501.06
22.5584,6493.27
22.5924,6485.26
22.6264,6477.26
22.6604,6469.27
22.6944,6461.28
22.7284,6453.31
22.7624,6445.354
22.7964,6437.41
22.8304,6429.48
22.8644,6421.56
22.8984,6413.66
22.9324,6405.78
22.9664,6397.91
23.0004,6390.07
23.0344,6382.25
23.0684,6374.45
23.1024,6366.44
23.1364,6358.47
23.1704,6350.52
23.2044,6342.61
23.2384,6334.74
23.2724,6326.91
23.3064,6319.12
23.3404,6314.53
23.3744,6313.14
23.4084,6311.82
23.4424,6310.57
23.4764,6309.4
23.5104,6308.33
23.5444,6307.37
23.5784,6306.55
23.6124,6305.6
23.6464,6304.86
23.6804,6304.38
23.7144,6304.23
23.7484,6304.52
23.7824,6305.34
23.8164,6306.87
23.8504,6309.287
23.8844,6312.81
23.9184,6317.68
23.9524,6324.202
23.9864,6332.65
24.0204,6343.33
24.0544,6356.5
24.0884,6372.37
24.1224,6390.785
24.1564,6412.04
24.1904,6435.98
24.2244,6462.25
24.2584,6490.24
24.2924,6519.03
24.3264,6547.33
24.3604,6573.32
24.3944,6595
24.4284,6610.43
24.4624,6617.79
24.4964,6615.98
24.5304,6604.9
24.5644,6585.52
24.5984,6559.53
24.6324,6528.604
24.6664,6495.13
24.7004,6460.86
24.7344,6427.14
24.7684,6394.97
24.8024,6365.03
24.8364,6337.73
24.8704,6313.09
24.9044,6291.13
24.9384,6271.94
24.9724,6255.3
25.0064,6240.98
25.0404,6228.67
25.0744,6218.09
25.1084,6208.96
25.1424,6205.55
25.1764,6203.1
25.2104,6201.44
25.2444,6200.4
25.2784,6199.856
25.3124,6199.72
25.3464,6199.93
25.3804,6200.27
25.4144,6200.7
25.4484,6201.36
25.4824,6202.22
25.5164,6203.28
25.5504,6204.52
25.5844,6205.96
25.6184,6207.6
25.6524,6209.119
25.6864,6210.86
25.7204,6212.83
25.7544,6215.07
25.7884,6217.61
25.8224,6220.49
25.8564,6223.77
25.8904,6227.36
25.9244,6231.34
25.9584,6236.01
25.9924,6241.54
26.0264,6248.1
26.0604,6255.926
26.0944,6265.29
26.1284,6276.52
26.1624,6289.61
26.1964,6305.33
26.2304,6324.14
26.2644,6346.5
26.2984,6372.89
26.3324,6403.78
26.3664,6439.57
26.4004,6480.445
26.4344,6526.63
26.4684,6578.39
26.5024,6635.63
26.5364,6698.01
26.5704,6764.91
26.6044,6835.37
26.6384,6908.03
26.6724,6980.72
26.7064,7051.44
26.7404,7117.33
26.7744,7175.12
26.8084,7221.37
26.8424,7252.91
26.8764,7267.302
26.9104,7263.17
26.9444,7240.74
26.9784,7201.8
27.0124,7149.05
27.0464,7085.75
27.0804,7015.29
27.1144,6940.824
27.1484,6865.05
27.1824,6789.84
27.2164,6717.23
27.2504,6648.44
27.2844,6584.85
27.3184,6526.01
27.3524,6472.93
27.3864,6425.16
27.4204,6382.82
27.4544,6345.63
27.4884,6313.24
27.5224,6285.22
27.5564,6261.08
27.5904,6240.36
27.6244,6222.59
27.6584,6207.33
27.6924,6193.86
27.7264,6182.15
27.7604,6171.89
27.7944,6162.81
27.8284,6154.7
27.8624,6147.37
27.8964,6140.688
27.9304,6134.37
27.9644,6128.33
27.9984,6122.65
28.0324,6117.27
28.0664,6112.14
28.1004,6107.23
28.1344,6102.504
28.1684,6097.95
28.2024,6093.24
28.2364,6088.67
28.2704,6084.22
28.3044,6079.87
28.3384,6075.67
28.3724,6071.52
28.4064,6067.44
28.4404,6063.32
28.4744,6059.1
28.5084,6054.953
28.5424,6050.86
28.5764,6046.82
28.6104,6042.83
28.6444,6038.89
28.6784,6035
28.7124,6030.87
28.7464,6026.77
28.7804,6022.72
28.8144,6018.69
28.8484,6014.7
28.8824,6010.73
28.9164,6006.795
28.9504,6002.75
28.9844,5998.59
29.0184,5994.45
29.0524,5990.34
29.0864,5986.24
29.1204,5982.16
29.1544,5978.11
29.1884,5974.06
29.2224,5969.7
29.2564,5965.36
29.2904,5961.03
29.3244,5956.71
29.3584,5952.4
29.3924,5948.11
29.4264,5943.83
29.4604,5940.26
29.4944,5937.4
29.5284,5934.55
29.5624,5931.71
29.5964,5928.88
29.6304,5926.06
29.6644,5923.245
29.6984,5920.44
29.7324,5917.38
29.7664,5914.32
29.8004,5911.275
29.8344,5908.23
29.8684,5905.2
29.9024,5902.17
29.9364,5899.15
29.9704,5896.14
30.0044,5893.13
30.0384,5890.125
30.0724,5886.79
30.1064,5883.81
30.1404,5880.66
30.1744,5877.7
30.2084,5874.73
30.2424,5871.509
30.2764,5868.28
30.3104,5865.06
30.3444,5861.84
30.3784,5858.63
30.4124,5855.42
30.4464,5852.22
30.4804,5848.85
30.5144,5845.33
30.5484,5841.81
30.5824,5838.29
30.6164,5834.78
30.6504,5831.27
30.6844,5827.77
30.7184,5824.27
30.7524,5824.546
30.7864,5824.826
30.8204,5825.11
30.8544,5825.4
30.8884,5825.69
30.9224,5825.99
30.9564,5826.29
30.9904,5826.49
31.0244,5826.589
31.0584,5826.69
31.0924,5826.8
31.1264,5826.92
31.1604,5827.04
31.1944,5827.16
31.2284,5827.29
31.2624,5827.18
31.2964,5827.07
31.3304,5826.96
31.3644,5826.86
31.3984,5826.77
31.4324,5826.68
31.4664,5826.6
31.5004,5826.53
31.5344,5826.46
31.5684,5826.46
31.6024,5826.41
31.6364,5826.36
31.6704,5826.36
31.7044,5826.327
31.7384,5826.31
31.7724,5825.91
31.8064,5825.52
31.8404,5825.14
31.8744,5824.77
31.9084,5824.41
31.9424,5824.06
31.9764,5823.73
32.0104,5823.272
32.0444,5822.69
32.0784,5822.13
32.1124,5821.58
32.1464,5821.04
32.1804,5820.53
32.2144,5820.03
32.2484,5819.55
32.2824,5819.09
32.3164,5818.66
32.3504,5818.25
32.3844,5817.87
32.4184,5817.514
32.4524,5817.4
32.4864,5817.12
32.5204,5817.66
32.5544,5819.14
32.5884,5820.56
32.6224,5822.03
32.6564,5823.54
32.6904,5825.115
32.7244,5826.75
32.7584,5828.44
32.7924,5829.91
32.8264,5831.45
32.8604,5833.1
32.8944,5834.84
32.9284,5836.71
32.9624,5838.72
32.9964,5840.89
33.0304,5843.1
33.0644,5845.4
33.0984,5847.98
33.1324,5850.93
33.1664,5854.3
33.2004,5858.22
33.2344,5862.81
33.2684,5868.217
33.3024,5874.3
33.3364,5881.58
33.3704,5890.32
33.4044,5900.76
33.4384,5913.18
33.4724,5927.88
33.5064,5945.13
33.5404,5965.03
33.5744,5987.81
33.6084,6013.769
33.6424,6042.99
33.6764,6074.47
33.7104,6109.93
33.7444,6147.56
33.7784,6187.74
33.8124,6229.16
33.8464,6270.69
33.8804,6310.94
33.9144,6348.25
33.9484,6380.79
33.9824,6406.75
34.0164,6424.5
34.0504,6432.68
34.0844,6430.71
34.1184,6418.87
34.1524,6397.99
34.1864,6369.44
34.2204,6334.91
34.2544,6296.22
34.2884,6255.11
34.3224,6212.76
34.3564,6170.77
34.3904,6130.13
34.4244,6091.56
34.4584,6055.57
34.4924,6022.46
34.5264,5992.41
34.5604,5965.26
34.5944,5940.963
34.6284,5919.54
34.6624,5900.78
34.6964,5884.471
34.7304,5870.347
34.7644,5858.15
34.7984,5847.63
34.8324,5838.22
34.8664,5830.02
34.9004,5822.84
34.9344,5816.515
34.9684,5810.89
35.0024,5805.84
35.0364,5801.28
35.0704,5796.97
35.1044,5792.85
35.1384,5789.03
35.1724,5785.48
35.2064,5782.19
35.2404,5779.14
35.2744,5776.33
35.3084,5773.76
35.3424,5772.55
35.3764,5771.6
35.4104,5770.88
35.4444,5770.4
35.4784,5770.14
35.5124,5770.069
35.5464,5770.16
35.5804,5770.17
35.6144,5770.03
35.6484,5769.81
35.6824,5769.39
35.7164,5768.71
35.7504,5767.55
35.7844,5765.906
35.8184,5763.78
35.8524,5761.17
35.8864,5758.17
35.9204,5754.9
35.9544,5751.46
35.9884,5747.97
36.0224,5744.5
36.0564,5741.12
36.0904,5738.17
36.1244,5735.68
36.1584,5733.37
36.1924,5731.25
36.2264,5729.29
36.2604,5727.51
36.2944,5725.95
36.3284,5724.45
36.3624,5723.07
36.3964,5721.83
36.4304,5720.64
36.4644,5719.51
36.4984,5718.45
36.5324,5717.43
36.5664,5716.46
36.6004,5715.46
36.6344,5714.42
36.6684,5713.42
36.7024,5712.43
36.7364,5711.46
36.7704,5710.52
36.8044,5709.59
36.8384,5708.67
36.8724,5707.78
36.9064,5706.9
36.9404,5706.03
36.9744,5705.19
37.0084,5704.35
37.0424,5703.54
37.0764,5702.747
37.1104,5701.8
37.1444,5700.712
37.1784,5699.64
37.2124,5698.6
37.2464,5697.576
37.2804,5696.58
37.3144,5695.63
37.3484,5694.71
37.3824,5696.7
37.4164,5698.75
37.4504,5700.86
37.4844,5703.04
37.5184,5705.31
37.5524,5707.68
37.5864,5710.18
37.6204,5712.68
37.6544,5715.19
37.6884,5717.92
37.7224,5720.88
37.7564,5724.12
37.7904,5727.67
37.8244,5731.56
37.8584,5735.82
37.8924,5740.14
37.9264,5744.87
37.9604,5750.02
37.9944,5755.57
38.0284,5761.51
38.0624,5767.78
38.0964,5774.32
38.1304,5780.85
38.1644,5787.25
38.1984,5793.53
38.2324,5799.5
38.2664,5804.94
38.3004,5809.67
38.3344,5813.51
38.3684,5816.349
38.4024,5817.83
38.4364,5818.41
38.4704,5818.27
38.5044,5817.672
38.5384,5816.91
38.5724,5816.298
38.6064,5816.15
38.6404,5816.75
38.6744,5818.35
38.7084,5821.16
38.7424,5825.35
38.7764,5831.04
38.8104,5838.32
38.8444,5847.2
38.8784,5857.63
38.9124,5869.17
38.9464,5881.97
38.9804,5895.76
39.0144,5910.19
39.0484,5924.76
39.0824,5938.89
39.1164,5951.879
39.1504,5962.8
39.1844,5970.91
39.2184,5975.76
39.2524,5976.92
39.2864,5974.23
39.3204,5967.83
39.3544,5958.1
39.3884,5945.617
39.4224,5930.7
39.4564,5914.4
39.4904,5897.36
39.5244,5880.14
39.5584,5863.14
39.5924,5846.829
39.6264,5831.38
39.6604,5816.85
39.6944,5803.32
39.7284,5791.01
39.7624,5779.92
39.7964,5770.02
39.8304,5761.25
39.8644,5753.53
39.8984,5746.75
39.9324,5740.52
39.9664,5735.04
40.0004,5730.19
40.0344,5725.9
40.0684,5722.06
40.1024,5718.62
40.1364,5715.5
40.1704,5712.8
40.2044,5710.471
40.2384,5708.33
40.2724,5706.35
40.3064,5704.49
40.3404,5702.76
40.3744,5701.13
40.4084,5699.59
40.4424,5697.9
40.4764,5696.29
40.5104,5694.77
40.5444,5693.33
40.5784,5691.98
40.6124,5690.74
40.6464,5689.6
40.6804,5688.6
40.7144,5687.76
40.7484,5687.11
40.7824,5686.7
40.8164,5686.563
40.8504,5686.27
40.8844,5686.84
40.9184,5687.84
40.9524,5688.8
40.9864,5690.465
41.0204,5692.59
41.0544,5695.13
41.0884,5698.02
41.1224,5701.14
41.1564,5704.32
41.1904,5708.55
41.2244,5713.55
41.2584,5717.78
41.2924,5720.95
41.3264,5722.835
41.3604,5723.326
41.3944,5722.5
41.4284,5720.49
41.4624,5717.31
41.4964,5713.485
41.5304,5709.29
41.5644,5704.983
41.5984,5700.77
41.6324,5696.8
41.6664,5693.188
41.7004,5689.89
41.7344,5686.93
41.7684,5684.418
41.8024,5682.348
41.8364,5680.69
41.8704,5679.39
41.9044,5678.425
41.9384,5677.74
41.9724,5677.04
42.0064,5676.55
42.0404,5676.23
42.0744,5676.05
42.1084,5676.01
42.1424,5676.07
42.1764,5676.25
42.2104,5676.38
42.2444,5676.47
42.2784,5676.69
42.3124,5677.04
42.3464,5677.54
42.3804,5678.23
42.4144,5679.12
42.4484,5680.24
42.4824,5681.3
42.5164,5682.67
42.5504,5684.36
42.5844,5686.42
42.6184,5688.86
42.6524,5691.7
42.6864,5694.94
42.7204,5698.59
42.7544,5702.6
42.7884,5706.933
42.8224,5711.52
42.8564,5716.27
42.8904,5721.04
42.9244,5725.65
42.9584,5729.92
42.9924,5733.28
43.0264,5735.83
43.0604,5737.37
43.0944,5737.73
43.1284,5736.85
43.1624,5734.75
43.1964,5731.52
43.2304,5727.16
43.2644,5721.88
43.2984,5716.08
43.3324,5709.98
43.3664,5703.8
43.4004,5697.69
43.4344,5691.79
43.4684,5686.2
43.5024,5680.61
43.5364,5675.432
43.5704,5670.69
43.6044,5666.36
43.6384,5662.42
43.6724,5658.82
43.7064,5655.5
43.7404,5652.22
43.7744,5648.92
43.8084,5645.7
43.8424,5642.52
43.8764,5639.37
43.9104,5636.22
43.9444,5633.1
43.9784,5630
44.0124,5628.91
44.0464,5627.89
44.0804,5626.94
44.1144,5626.07
44.1484,5625.29
44.1824,5624.6
44.2164,5623.991
44.2504,5623.36
44.2844,5622.71
44.3184,5622.12
44.3524,5621.594
44.3864,5621.12
44.4204,5620.69
44.4544,5620.3
44.4884,5619.99
44.5224,5619.655
44.5564,5619.34
44.5904,5619.05
44.6244,5618.8
44.6584,5618.54
44.6924,5618.28
44.7264,5618.04
44.7604,5617.7
44.7944,5617.27
44.8284,5616.85
44.8624,5616.43
44.8964,5616.02
44.9304,5615.607
44.9644,5615.2
44.9984,5614.8
45.0324,5614.23
45.0664,5613.67
45.1004,5613.1
45.1344,5612.54
45.1684,5611.92
45.2024,5611.36
45.2364,5610.81
45.2704,5610.23
45.3044,5609.68
45.3384,5609.13
45.3724,5608.59
45.4064,5608.64
45.4404,5608.11
45.4744,5607.57
45.5084,5607.04
45.5424,5609.09
45.5764,5610.84
45.6104,5612.59
45.6444,5614.35
45.6784,5616.1
45.7124,5617.86
45.7464,5619.62
45.7804,5621.21
45.8144,5622.64
45.8484,5624.06
45.8824,5625.49
45.9164,5626.92
45.9504,5628.35
45.9844,5629.781
46.0184,5631.0
46.0524,5632.06
46.0864,5633.12
46.1204,5634.07
46.1544,5635.13
46.1884,5636.19
46.2224,5637.25
46.2564,5638.31
46.2904,5639.23
46.3244,5640
46.3584,5640.77
46.3924,5641.54
46.4264,5642.316
46.4604,5643.09
46.4944,5643.86
46.5284,5644.64
46.5624,5645.12
46.5964,5645.6
46.6304,5646.09
46.6644,5646.57
46.6984,5647.05
46.7324,5647.54
46.7664,5648.025
46.8004,5648.38
46.8344,5648.6
46.8684,5648.81
46.9024,5649.03
46.9364,5649.2
46.9704,5649.42
47.0044,5649.65
47.0384,5649.84
47.0724,5649.79
47.1064,5649.74
47.1404,5649.692
47.1744,5649.64
47.2084,5649.596
47.2424,5649.55
47.2764,5649.5
47.3104,5649.31
47.3444,5648.98
47.3784,5648.65
47.4124,5648.32
47.4464,5647.99
47.4804,5647.66
47.5144,5647.33
47.5484,5647.003
47.5824,5646.68
47.6164,5646.35
47.6504,5646.03
47.6844,5645.71
47.7184,5645.38
47.7524,5645.06
47.7864,5644.74
47.8204,5644.28
47.8544,5643.68
47.8884,5643.074
47.9224,5642.47
47.9564,5641.87
47.9904,5641.273
48.0244,5640.68
48.0584,5640.08
48.0924,5639.19
48.1264,5638.29
48.1604,5637.4
48.1944,5636.51
48.2284,5635.623
48.2624,5634.74
48.2964,5633.86
48.3304,5632.81
48.3644,5631.61
48.3984,5630.42
48.4324,5629.22
48.4664,5628.03
48.5004,5626.84
48.5344,5625.83
48.5684,5624.65
48.6024,5623.14
48.6364,5621.65
48.6704,5620.15
48.7044,5618.75
48.7384,5617.26
48.7724,5615.79
48.8064,5614.32
48.8404,5613.81
48.8744,5614.28
48.9084,5614.76
48.9424,5615.24
48.9764,5615.73
49.0104,5616.24
49.0444,5616.76
49.0784,5617.29
49.1124,5619.149
49.1464,5621.03
49.1804,5622.93
49.2144,5624.85
49.2484,5626.8
49.2824,5628.79
49.3164,5630.82
49.3504,5632.9
49.3844,5635.05
49.4184,5637.29
49.4524,5639.63
49.4864,5642.12
49.5204,5644.77
49.5544,5647.63
49.5884,5650.73
49.6224,5653.9
49.6564,5657.46
49.6904,5661.34
49.7244,5665.63
49.7584,5670.34
49.7924,5675.51
49.8264,5681.06
49.8604,5687.3
49.8944,5694.05
49.9284,5701.02
49.9624,5707.94
49.9964,5714.547
50.0304,5720.625
50.0644,5725.86
50.0984,5730.01
50.1324,5732.65
50.1664,5734.05
50.2004,5734.28
50.2344,5733.5
50.2684,5731.94
50.3024,5729.84
50.3364,5727.45
50.3704,5724.84
50.4044,5722.21
50.4384,5719.849
50.4724,5717.84
50.5064,5716.25
50.5404,5715.1
50.5744,5714.39
50.6084,5714.11
50.6424,5713.96
50.6764,5714.17
50.7104,5714.72
50.7444,5715.55
50.7784,5716.65
50.8124,5717.97
50.8464,5719.49
50.8804,5721.03
50.9144,5722.597
50.9484,5724.31
50.9824,5726.17
51.0164,5728.18
51.0504,5730.34
51.0844,5732.67
51.1184,5735.18
51.1524,5737.61
51.1864,5740.38
51.2204,5743.35
51.2544,5746.68
51.2884,5750.44
51.3224,5754.78
51.3564,5759.71
51.3904,5765.42
51.4244,5772.08
51.4584,5779.89
51.4924,5789.07
51.5264,5799.848
51.5604,5812.51
51.5944,5827.314
51.6284,5844.55
51.6624,5864.19
51.6964,5886.77
51.7304,5912.48
51.7644,5941.46
51.7984,5973.75
51.8324,6009.28
51.8664,6047.82
51.9004,6088.84
51.9344,6131.74
51.9684,6175.83
52.0024,6219.99
52.0364,6262.81
52.0704,6302.59
52.1044,6337.48
52.1384,6365.62
52.1724,6385.01
52.2064,6394.82
52.2404,6394.5
52.2744,6384.18
52.3084,6364.59
52.3424,6336.9
52.3764,6302.64
52.4104,6263.34
52.4444,6220.7
52.4784,6176.5
52.5124,6132.12
52.5464,6088.72
52.5804,6047.16
52.6144,6008.1
52.6484,5971.94
52.6824,5938.58
52.7164,5908.48
52.7504,5881.61
52.7844,5857.87
52.8184,5837.073
52.8524,5818.98
52.8864,5803.34
52.9204,5789.68
52.9544,5777.73
52.9884,5767.42
53.0224,5758.51
53.0564,5750.767
53.0904,5744.01
53.1244,5738.05
53.1584,5732.77
53.1924,5727.65
53.2264,5722.98
53.2604,5718.68
53.2944,5714.673
53.3284,5710.92
53.3624,5707.38
53.3964,5704.01
53.4304,5700.64
53.4644,5697.23
53.4984,5693.94
53.5324,5690.75
53.5664,5687.66
53.6004,5684.65
53.6344,5681.72
53.6684,5678.87
53.7024,5678.93
53.7364,5679.06
53.7704,5679.24
53.8044,5679.49
53.8384,5679.79
53.8724,5680.15
53.9064,5680.57
53.9404,5681.03
53.9744,5681.54
54.0084,5682.11
54.0424,5682.73
54.0764,5683.4
54.1104,5684.13
54.1444,5684.91
54.1784,5685.76
54.2124,5687.59
54.2464,5689.48
54.2804,5691.46
54.3144,5693.54
54.3484,5695.73
54.3824,5698.04
54.4164,5700.51
54.4504,5703.02
54.4844,5705.61
54.5184,5708.48
54.5524,5711.7
54.5864,5715.32
54.6204,5719.45
54.6544,5724.188
54.6884,5729.64
54.7224,5735.59
54.7564,5742.5
54.7904,5750.51
54.8244,5759.73
54.8584,5770.26
54.8924,5782.18
54.9264,5795.53
54.9604,5810.1
54.9944,5825.81
55.0284,5842.68
55.0624,5860.45
55.0964,5878.71
55.1304,5896.94
55.1644,5914.48
55.1984,5930.55
55.2324,5943.98
55.2664,5954.4
55.3004,5961.254
55.3344,5964.19
55.3684,5963.11
55.4024,5958.18
55.4364,5949.76
55.4704,5938.207
55.5044,5924.16
55.5384,5908.48
55.5724,5891.83
55.6064,5874.816
55.6404,5857.95
55.6744,5841.65
55.7084,5826.176
55.7424,5811.59
55.7764,5798.143
55.8104,5785.99
55.8444,5775.1
55.8784,5765.51
55.9124,5757.16
55.9464,5749.89
55.9804,5743.66
56.0144,5738.35
56.0484,5733.87
56.0824,5730.1
56.1164,5726.96
56.1504,5724.34
56.1844,5722.16
56.2184,5720.32
56.2524,5718.42
56.2864,5716.695
56.3204,5715.09
56.3544,5713.54
56.3884,5712
56.4224,5710.45
56.4564,5708.87
56.4904,5707.099
56.5244,5705.15
56.5584,5703.21
56.5924,5701.28
56.6264,5699.38
56.6604,5697.53
56.6944,5695.75
56.7284,5694.04
56.7624,5692.12
56.7964,5690.29
56.8304,5688.56
56.8644,5686.92
56.8984,5685.384
56.9324,5683.95
56.9664,5682.62
57.0004,5682.77
57.0344,5684.4
57.0684,5686.18
57.1024,5688.13
57.1364,5690.281
57.1704,5692.67
57.2044,5695.34
57.2384,5698.34
57.2724,5701.43
57.3064,5704.97
57.3404,5709.016
57.3744,5713.63
57.4084,5718.86
57.4424,5724.77
57.4764,5731.35
57.5104,5738.47
57.5444,5746.1
57.5784,5754.32
57.6124,5763.02
57.6464,5772.02
57.6804,5781.14
57.7144,5790.13
57.7484,5798.77
57.7824,5806.84
57.8164,5814.11
57.8504,5820.37
57.8844,5825.39
57.9184,5828.96
57.9524,5830.92
57.9864,5831.18
58.0204,5829.63
58.0544,5826.36
58.0884,5821.689
58.1224,5815.84
58.1564,5809.06
58.1904,5801.74
58.2244,5793.92
58.2584,5785.96
58.2924,5777.79
58.3264,5769.9
58.3604,5762.4
58.3944,5755.47
58.4284,5749.05
58.4624,5743.22
58.4964,5737.998
58.5304,5733.22
58.5644,5728.86
58.5984,5725.06
58.6324,5721.722
58.6664,5718.83
58.7004,5716.34
58.7344,5714.19
58.7684,5712.36
58.8024,5710.46
58.8364,5708.79
58.8704,5707.31
58.9044,5706
58.9384,5704.83
58.9724,5703.802
59.0064,5702.3
59.0404,5701.35
59.0744,5700.35
59.1084,5699.45
59.1424,5698.35
59.1764,5697.63
59.2104,5696.98
59.2444,5696.407
59.2784,5695.89
59.3124,5696.97
59.3464,5698.07
59.3804,5699.16
59.4144,5700.201
59.4484,5701.17
59.4824,5702.02
59.5164,5702.747
59.5504,5703.18
59.5844,5703.33
59.6184,5703.37
59.6524,5703.304
59.6864,5703.17
59.7204,5702.98
59.7544,5702.77
59.7884,5702.766
59.8224,5702.266
59.8564,5701.8
59.8904,5701.38
59.9244,5701.02
59.9584,5700.81
59.9924,5700.56
60.0264,5700.35
60.0604,5700.193
60.0944,5700.08
60.1284,5700
60.1624,5699.95
60.1964,5699.94
60.2304,5699.94
60.2644,5699.97
60.2984,5700.01
60.3324,5699.75
60.3664,5699.51
60.4004,5699.27
60.4344,5699.05
60.4684,5698.83
60.5024,5698.62
60.5364,5698.41
60.5704,5698.06
60.6044,5697.55
60.6384,5697.045
60.6724,5696.55
60.7064,5696.06
60.7404,5695.57
60.7744,5695.09
60.8084,5694.61
60.8424,5696.18
60.8764,5697.7
60.9104,5699.28
60.9444,5700.87
60.9784,5702.47
61.0124,5704.04
61.0464,5705.65
61.0804,5707.13
61.1144,5708.46
61.1484,5709.81
61.1824,5711.16
61.2164,5712.52
61.2504,5713.9
61.2844,5715.29
61.3184,5716.69
61.3524,5717.81
61.3864,5718.94
61.4204,5720.09
61.4544,5721.27
61.4884,5722.471
61.5224,5723.7
61.5564,5724.97
61.5904,5726.14
61.6244,5727.22
61.6584,5728.367
61.6924,5729.591
61.7264,5730.91
61.7604,5732.34
61.7944,5733.91
61.8284,5735.65
61.8624,5737.3
61.8964,5739.19
61.9304,5741.34
61.9644,5743.779
61.9984,5746.56
62.0324,5749.701
62.0664,5753.24
62.1004,5757.19
62.1344,5761.4
62.1684,5766.21
62.2024,5771.42
62.2364,5777.01
62.2704,5782.83
62.3044,5788.96
62.3384,5795.2
62.3724,5801.11
62.4064,5806.79
62.4404,5812.01
62.4744,5816.56
62.5084,5820.23
62.5424,5822.88
62.5764,5824.42
62.6104,5824.73
62.6444,5823.88
62.6784,5822.11
62.7124,5819.56
62.7464,5816.42
62.7804,5812.87
62.8144,5809.08
62.8484,5805.21
62.8824,5801.12
62.9164,5797.15
62.9504,5793.34
62.9844,5789.66
63.0184,5786.1
63.0524,5782.61
63.0864,5779.18
63.1204,5775.61
63.1544,5771.9
63.1884,5768.224
63.2224,5764.59
63.2564,5761.01
63.2904,5757.53
63.3244,5754.17
63.3584,5750.93
63.3924,5747.52
63.4264,5744.32
63.4604,5741.35
63.4944,5738.591
63.5284,5736.09
63.5624,5733.82
63.5964,5731.8
63.6304,5731.48
63.6644,5732.86
63.6984,5734.48
63.7324,5736.33
63.7664,5738.43
63.8004,5740.761
63.8344,5743.33
63.8684,5746.14
63.9024,5749.18
63.9364,5752.43
63.9704,5755.88
64.0044,5759.49
64.0384,5763.22
64.0724,5767
64.1064,5770.77
64.1404,5774.31
64.1744,5777.578
64.2084,5780.64
64.2424,5783.51
64.2764,5786.23
64.3104,5788.88
64.3444,5791.538
64.3784,5794.31
64.4124,5797.19
64.4464,5800.4
64.4804,5804.08
64.5144,5808.32
64.5484,5813.21
64.5824,5818.8
64.6164,5825.134
64.6504,5832.01
64.6844,5839.4
64.7184,5847.38
64.7524,5855.85
64.7864,5864.51
64.8204,5873.33
64.8544,5881.93
64.8884,5889.97
64.9224,5896.78
64.9564,5902.41
64.9904,5906.539
65.0244,5909.01
65.0584,5909.77
65.0924,5908.845
65.1264,5906.39
65.1604,5902.57
65.1944,5897.62
65.2284,5891.8
65.2624,5885.37
65.2964,5878.61
65.3304,5871.77
65.3644,5865.07
65.3984,5858.7
65.4324,5852.49
65.4664,5846.84
65.5004,5841.81
65.5344,5837.43
65.5684,5833.73
65.6024,5830.71
65.6364,5828.35
65.6704,5826.5
65.7044,5825.15
65.7384,5824.43
65.7724,5824.35
65.8064,5824.93
65.8404,5826.17
65.8744,5828.13
65.9084,5830.84
65.9424,5834.04
65.9764,5838.11
66.0104,5843.13
66.0444,5849.17
66.0784,5856.29
66.1124,5864.55
66.1464,5873.97
66.1804,5884.37
66.2144,5895.72
66.2484,5908.13
66.2824,5921.44
66.3164,5935.45
66.3504,5949.87
66.3844,5964.3
66.4184,5978.25
66.4524,5990.861
66.4864,6001.81
66.5204,6010.5
66.5544,6016.44
66.5884,6019.3
66.6224,6018.97
66.6564,6015.51
66.6904,6008.997
66.7244,5999.73
66.7584,5988.24
66.7924,5974.96
66.8264,5960.36
66.8604,5944.932
66.8944,5929.13
66.9284,5913.38
66.9624,5898.02
66.9964,5883.32
67.0304,5869.48
67.0644,5856.62
67.0984,5844.81
67.1324,5834.07
67.1664,5824.4
67.2004,5815.61
67.2344,5807.64
67.2684,5800.56
67.3024,5794.29
67.3364,5788.73
67.3704,5783.79
67.4044,5779.4
67.4384,5775.47
67.4724,5772.95
67.5064,5770.75
67.5404,5768.83
67.5744,5767.127
67.6084,5765.61
67.6424,5764.25
67.6764,5763.01
67.7104,5761.87
67.7444,5760.82
67.7784,5759.84
67.8124,5758.92
67.8464,5758.05
67.8804,5757.22
67.9144,5756.44
67.9484,5755.69
67.9824,5754.59
68.0164,5753.521
68.0504,5752.48
68.0844,5751.45
68.1184,5750.45
68.1524,5749.471
68.1864,5748.51
68.2204,5747.44
68.2544,5746.27
68.2884,5745.11
68.3224,5743.972
68.3564,5742.84
68.3904,5741.72
68.4244,5740.61
68.4584,5739.52
68.4924,5738.429
68.5264,5737.35
68.5604,5736.28
68.5944,5735.22
68.6284,5734.17
68.6624,5733.11
68.6964,5732.07
68.7304,5730.9
68.7644,5729.6
68.7984,5728.3
68.8324,5727.009
68.8664,5725.73
68.9004,5724.46
68.9344,5723.21
68.9684,5721.96
69.0024,5723.54
69.0364,5725.13
69.0704,5726.74
69.1044,5728.37
69.1384,5730.03
69.1724,5731.72
69.2064,5733.44
69.2404,5735.19
69.2744,5737
69.3084,5738.85
69.3424,5740.68
69.3764,5742.65
69.4104,5744.69
69.4444,5746.79
69.4784,5748.97
69.5124,5753.74
69.5464,5758.61
69.5804,5763.54
69.6144,5768.53
69.6484,5773.56
69.6824,5778.6
69.7164,5783.64
69.7504,5788.63
69.7844,5793.55
69.8184,5798.33
69.8524,5802.98
69.8864,5807.46
69.9204,5811.74
69.9544,5815.82
69.9884,5817.63