File: herald_visualization/XRD_Plotting/Data/241216-MnF3-ball_milled_24h-20-70deg-40min.csv
2Theta,Intensity
20.0084,4189.0
20.0418,4175.0
20.0752,4279.0
20.1086,4205.0
20.142,4113.0
20.1755,4170.0
20.2089,4279.0
20.2423,4210.0
20.2757,4097.0
20.3092,4044.0
20.3426,4173.0
20.376,4056.0
20.4094,4161.0
20.4428,4102.0
20.4763,4099.0
20.5097,3953.0
20.5431,4028.0
20.5765,3956.0
20.61,3975.0
20.6434,3871.0
20.6768,3962.0
20.7102,3930.0
20.7437,3929.0
20.7771,3861.0
20.8105,3944.0
20.8439,3826.0
20.8773,3766.0
20.9108,3859.0
20.9442,3753.0
20.9776,3860.0
21.011,3916.0
21.0445,3789.0
21.0779,3833.0
21.1113,3723.0
21.1447,3769.0
21.1781,3692.0
21.2116,3717.0
21.245,3786.0
21.2784,3728.0
21.3118,3611.0
21.3453,3719.0
21.3787,3696.0
21.4121,3567.0
21.4455,3634.0
21.4789,3575.0
21.5124,3689.0
21.5458,3661.0
21.5792,3488.0
21.6126,3492.0
21.6461,3438.0
21.6795,3526.0
21.7129,3572.0
21.7463,3530.0
21.7798,3484.0
21.8132,3441.0
21.8466,3551.0
21.88,3504.0
21.9134,3398.0
21.9469,3460.0
21.9803,3496.0
22.0137,3286.0
22.0471,3386.0
22.0806,3360.0
22.114,3324.0
22.1474,3312.0
22.1808,3400.0
22.2142,3386.0
22.2477,3292.0
22.2811,3254.0
22.3145,3145.0
22.3479,3185.0
22.3814,3334.0
22.4148,3280.0
22.4482,3191.0
22.4816,3175.0
22.515,3433.0
22.5485,3369.0
22.5819,3264.0
22.6153,3246.0
22.6487,3215.0
22.6822,3181.0
22.7156,3388.0
22.749,3285.0
22.7824,3279.0
22.8158,3182.0
22.8493,3418.0
22.8827,3342.0
22.9161,3367.0
22.9495,3395.0
22.983,3260.0
23.0164,3275.0
23.0498,3289.0
23.0832,3315.0
23.1167,3367.0
23.1501,3430.0
23.1835,3358.0
23.2169,3263.0
23.2503,3347.0
23.2838,3479.0
23.3172,3554.0
23.3506,3615.0
23.384,3696.0
23.4175,3781.0
23.4509,3865.0
23.4843,3995.0
23.5177,4327.0
23.5511,4402.0
23.5846,4812.0
23.618,5014.0
23.6514,5401.0
23.6848,5704.0
23.7183,6149.0
23.7517,6667.0
23.7851,6655.0
23.8185,6695.0
23.8519,6631.0
23.8854,6388.0
23.9188,6108.0
23.9522,5738.0
23.9856,5743.0
24.0191,5476.0
24.0525,5282.0
24.0859,5324.0
24.1193,5032.0
24.1528,4935.0
24.1862,4987.0
24.2196,4796.0
24.253,4873.0
24.2864,4644.0
24.3199,4576.0
24.3533,4413.0
24.3867,4208.0
24.4201,3830.0
24.4536,3807.0
24.487,3620.0
24.5204,3415.0
24.5538,3426.0
24.5872,3256.0
24.6207,3288.0
24.6541,3133.0
24.6875,3116.0
24.7209,3082.0
24.7544,2932.0
24.7878,2987.0
24.8212,2972.0
24.8546,2986.0
24.888,2854.0
24.9215,2952.0
24.9549,2759.0
24.9883,2831.0
25.0217,2927.0
25.0552,2781.0
25.0886,2746.0
25.122,2802.0
25.1554,2858.0
25.1888,2886.0
25.2223,2804.0
25.2557,2820.0
25.2891,2793.0
25.3225,2747.0
25.356,2621.0
25.3894,2805.0
25.4228,2739.0
25.4562,2722.0
25.4897,2693.0
25.5231,2735.0
25.5565,2694.0
25.5899,2808.0
25.6233,2774.0
25.6568,2787.0
25.6902,2739.0
25.7236,2786.0
25.757,2778.0
25.7905,2644.0
25.8239,2641.0
25.8573,2712.0
25.8907,2754.0
25.9241,2621.0
25.9576,2665.0
25.991,2612.0
26.0244,2649.0
26.0578,2572.0
26.0913,2530.0
26.1247,2641.0
26.1581,2575.0
26.1915,2549.0
26.2249,2540.0
26.2584,2688.0
26.2918,2608.0
26.3252,2578.0
26.3586,2621.0
26.3921,2575.0
26.4255,2600.0
26.4589,2656.0
26.4923,2550.0
26.5258,2601.0
26.5592,2515.0
26.5926,2611.0
26.626,2610.0
26.6594,2601.0
26.6929,2578.0
26.7263,2602.0
26.7597,2710.0
26.7931,2598.0
26.8266,2633.0
26.86,2629.0
26.8934,2668.0
26.9268,2549.0
26.9602,2610.0
26.9937,2554.0
27.0271,2543.0
27.0605,2659.0
27.0939,2496.0
27.1274,2495.0
27.1608,2469.0
27.1942,2377.0
27.2276,2518.0
27.261,2551.0
27.2945,2464.0
27.3279,2458.0
27.3613,2571.0
27.3947,2406.0
27.4282,2453.0
27.4616,2526.0
27.495,2556.0
27.5284,2455.0
27.5618,2515.0
27.5953,2407.0
27.6287,2488.0
27.6621,2438.0
27.6955,2472.0
27.729,2478.0
27.7624,2398.0
27.7958,2435.0
27.8292,2407.0
27.8627,2382.0
27.8961,2484.0
27.9295,2404.0
27.9629,2390.0
27.9963,2341.0
28.0298,2491.0
28.0632,2381.0
28.0966,2435.0
28.13,2307.0
28.1635,2397.0
28.1969,2358.0
28.2303,2389.0
28.2637,2365.0
28.2971,2390.0
28.3306,2310.0
28.364,2316.0
28.3974,2304.0
28.4308,2391.0
28.4643,2328.0
28.4977,2404.0
28.5311,2346.0
28.5645,2355.0
28.5979,2355.0
28.6314,2296.0
28.6648,2369.0
28.6982,2301.0
28.7316,2376.0
28.7651,2294.0
28.7985,2441.0
28.8319,2331.0
28.8653,2343.0
28.8988,2255.0
28.9322,2362.0
28.9656,2264.0
28.999,2266.0
29.0324,2320.0
29.0659,2302.0
29.0993,2155.0
29.1327,2258.0
29.1661,2258.0
29.1996,2237.0
29.233,2304.0
29.2664,2266.0
29.2998,2224.0
29.3332,2231.0
29.3667,2310.0
29.4001,2222.0
29.4335,2235.0
29.4669,2260.0
29.5004,2259.0
29.5338,2229.0
29.5672,2160.0
29.6006,2197.0
29.634,2200.0
29.6675,2135.0
29.7009,2148.0
29.7343,2141.0
29.7677,2222.0
29.8012,2205.0
29.8346,2159.0
29.868,2205.0
29.9014,2185.0
29.9348,2201.0
29.9683,2260.0
30.0017,2193.0
30.0351,2182.0
30.0685,2166.0
30.102,2151.0
30.1354,2130.0
30.1688,2234.0
30.2022,2166.0
30.2357,2220.0
30.2691,2117.0
30.3025,2133.0
30.3359,2145.0
30.3693,2143.0
30.4028,2077.0
30.4362,2076.0
30.4696,2128.0
30.503,2159.0
30.5365,2065.0
30.5699,2209.0
30.6033,1976.0
30.6367,2072.0
30.6701,2200.0
30.7036,2061.0
30.737,2046.0
30.7704,2110.0
30.8038,2076.0
30.8373,2062.0
30.8707,2067.0
30.9041,2062.0
30.9375,2078.0
30.9709,2099.0
31.0044,2093.0
31.0378,2036.0
31.0712,2056.0
31.1046,2015.0
31.1381,2069.0
31.1715,2102.0
31.2049,2105.0
31.2383,2098.0
31.2718,2126.0
31.3052,2102.0
31.3386,2046.0
31.372,2012.0
31.4054,2081.0
31.4389,2197.0
31.4723,2086.0
31.5057,2015.0
31.5391,2076.0
31.5726,2022.0
31.606,2053.0
31.6394,2068.0
31.6728,1984.0
31.7062,2092.0
31.7397,2036.0
31.7731,2079.0
31.8065,2099.0
31.8399,2037.0
31.8734,1988.0
31.9068,2067.0
31.9402,2129.0
31.9736,2066.0
32.007,2119.0
32.0405,2151.0
32.0739,2035.0
32.1073,2115.0
32.1407,2154.0
32.1742,2193.0
32.2076,2109.0
32.241,2077.0
32.2744,2213.0
32.3078,2174.0
32.3413,2144.0
32.3747,2311.0
32.4081,2299.0
32.4415,2263.0
32.475,2369.0
32.5084,2348.0
32.5418,2357.0
32.5752,2388.0
32.6087,2258.0
32.6421,2322.0
32.6755,2173.0
32.7089,2178.0
32.7423,2305.0
32.7758,2195.0
32.8092,2140.0
32.8426,2083.0
32.876,2115.0
32.9095,2132.0
32.9429,2085.0
32.9763,2169.0
33.0097,2126.0
33.0431,2065.0
33.0766,2109.0
33.11,2176.0
33.1434,2020.0
33.1768,2087.0
33.2103,2204.0
33.2437,2182.0
33.2771,2132.0
33.3105,2127.0
33.3439,2141.0
33.3774,2100.0
33.4108,2124.0
33.4442,2147.0
33.4776,2206.0
33.5111,2123.0
33.5445,2201.0
33.5779,2228.0
33.6113,2260.0
33.6448,2243.0
33.6782,2351.0
33.7116,2327.0
33.745,2337.0
33.7784,2322.0
33.8119,2287.0
33.8453,2297.0
33.8787,2380.0
33.9121,2215.0
33.9456,2252.0
33.979,2204.0
34.0124,2249.0
34.0458,2091.0
34.0792,2059.0
34.1127,2088.0
34.1461,2122.0
34.1795,2028.0
34.2129,2077.0
34.2464,2092.0
34.2798,2111.0
34.3132,2044.0
34.3466,2059.0
34.38,1961.0
34.4135,1971.0
34.4469,2039.0
34.4803,2004.0
34.5137,2004.0
34.5472,1980.0
34.5806,1986.0
34.614,1955.0
34.6474,2017.0
34.6808,2013.0
34.7143,2072.0
34.7477,2011.0
34.7811,2046.0
34.8145,2025.0
34.848,2016.0
34.8814,2109.0
34.9148,2098.0
34.9482,2077.0
34.9817,1975.0
35.0151,2032.0
35.0485,2028.0
35.0819,1924.0
35.1153,2068.0
35.1488,1994.0
35.1822,1909.0
35.2156,1939.0
35.249,1953.0
35.2825,1883.0
35.3159,1951.0
35.3493,1961.0
35.3827,1921.0
35.4161,1866.0
35.4496,1915.0
35.483,1926.0
35.5164,1826.0
35.5498,1896.0
35.5833,1882.0
35.6167,1867.0
35.6501,1928.0
35.6835,1848.0
35.7169,1856.0
35.7504,1917.0
35.7838,1786.0
35.8172,1841.0
35.8506,1919.0
35.8841,1832.0
35.9175,1866.0
35.9509,1886.0
35.9843,1791.0
36.0178,1815.0
36.0512,1773.0
36.0846,1871.0
36.118,1785.0
36.1514,1793.0
36.1849,1833.0
36.2183,1750.0
36.2517,1866.0
36.2851,1819.0
36.3186,1811.0
36.352,1719.0
36.3854,1763.0
36.4188,1781.0
36.4522,1690.0
36.4857,1716.0
36.5191,1762.0
36.5525,1688.0
36.5859,1803.0
36.6194,1800.0
36.6528,1769.0
36.6862,1795.0
36.7196,1721.0
36.753,1791.0
36.7865,1786.0
36.8199,1715.0
36.8533,1674.0
36.8867,1831.0
36.9202,1780.0
36.9536,1781.0
36.987,1747.0
37.0204,1824.0
37.0538,1797.0
37.0873,1753.0
37.1207,1746.0
37.1541,1763.0
37.1875,1793.0
37.221,1703.0
37.2544,1834.0
37.2878,1781.0
37.3212,1770.0
37.3547,1841.0
37.3881,1828.0
37.4215,1713.0
37.4549,1671.0
37.4883,1700.0
37.5218,1785.0
37.5552,1752.0
37.5886,1748.0
37.622,1744.0
37.6555,1739.0
37.6889,1716.0
37.7223,1703.0
37.7557,1754.0
37.7891,1695.0
37.8226,1722.0
37.856,1698.0
37.8894,1736.0
37.9228,1701.0
37.9563,1720.0
37.9897,1754.0
38.0231,1774.0
38.0565,1749.0
38.0899,1760.0
38.1234,1677.0
38.1568,1695.0
38.1902,1736.0
38.2236,1720.0
38.2571,1828.0
38.2905,1707.0
38.3239,1639.0
38.3573,1708.0
38.3908,1676.0
38.4242,1690.0
38.4576,1767.0
38.491,1780.0
38.5244,1731.0
38.5579,1746.0
38.5913,1798.0
38.6247,1694.0
38.6581,1730.0
38.6916,1780.0
38.725,1731.0
38.7584,1746.0
38.7918,1730.0
38.8252,1820.0
38.8587,1777.0
38.8921,1723.0
38.9255,1770.0
38.9589,1744.0
38.9924,1721.0
39.0258,1671.0
39.0592,1770.0
39.0926,1819.0
39.126,1810.0
39.1595,1803.0
39.1929,1676.0
39.2263,1828.0
39.2597,1789.0
39.2932,1824.0
39.3266,1770.0
39.36,1881.0
39.3934,1976.0
39.4269,1965.0
39.4603,1852.0
39.4937,1896.0
39.5271,1886.0
39.5605,1953.0
39.594,1972.0
39.6274,2049.0
39.6608,2116.0
39.6942,1993.0
39.7277,2047.0
39.7611,2036.0
39.7945,2088.0
39.8279,1986.0
39.8613,1971.0
39.8948,1971.0
39.9282,1988.0
39.9616,1960.0
39.995,1898.0
40.0285,1960.0
40.0619,1861.0
40.0953,1895.0
40.1287,1843.0
40.1621,1815.0
40.1956,1897.0
40.229,1797.0
40.2624,1946.0
40.2958,1882.0
40.3293,1850.0
40.3627,1848.0
40.3961,1921.0
40.4295,1871.0
40.4629,1867.0
40.4964,1850.0
40.5298,1967.0
40.5632,1971.0
40.5966,1879.0
40.6301,1970.0
40.6635,1848.0
40.6969,2016.0
40.7303,2014.0
40.7638,2007.0
40.7972,1997.0
40.8306,1993.0
40.864,2035.0
40.8974,1986.0
40.9309,2069.0
40.9643,2063.0
40.9977,2072.0
41.0311,2129.0
41.0646,2029.0
41.098,2063.0
41.1314,1994.0
41.1648,2032.0
41.1982,2058.0
41.2317,1962.0
41.2651,1971.0
41.2985,1912.0
41.3319,1897.0
41.3654,1867.0
41.3988,1902.0
41.4322,1859.0
41.4656,1834.0
41.499,1770.0
41.5325,1747.0
41.5659,1762.0
41.5993,1850.0
41.6327,1789.0
41.6662,1781.0
41.6996,1783.0
41.733,1808.0
41.7664,1809.0
41.7999,1868.0
41.8333,1730.0
41.8667,1821.0
41.9001,1745.0
41.9335,1711.0
41.967,1707.0
42.0004,1758.0
42.0338,1787.0
42.0672,1774.0
42.1007,1756.0
42.1341,1701.0
42.1675,1830.0
42.2009,1786.0
42.2343,1697.0
42.2678,1674.0
42.3012,1710.0
42.3346,1756.0
42.368,1767.0
42.4015,1648.0
42.4349,1674.0
42.4683,1672.0
42.5017,1660.0
42.5351,1656.0
42.5686,1663.0
42.602,1684.0
42.6354,1687.0
42.6688,1729.0
42.7023,1656.0
42.7357,1705.0
42.7691,1660.0
42.8025,1651.0
42.8359,1660.0
42.8694,1643.0
42.9028,1655.0
42.9362,1666.0
42.9696,1711.0
43.0031,1690.0
43.0365,1673.0
43.0699,1675.0
43.1033,1748.0
43.1368,1653.0
43.1702,1722.0
43.2036,1625.0
43.237,1671.0
43.2704,1681.0
43.3039,1658.0
43.3373,1607.0
43.3707,1685.0
43.4041,1658.0
43.4376,1630.0
43.471,1676.0
43.5044,1652.0
43.5378,1686.0
43.5712,1639.0
43.6047,1645.0
43.6381,1684.0
43.6715,1687.0
43.7049,1666.0
43.7384,1716.0
43.7718,1644.0
43.8052,1668.0
43.8386,1574.0
43.872,1636.0
43.9055,1597.0
43.9389,1577.0
43.9723,1592.0
44.0057,1579.0
44.0392,1667.0
44.0726,1661.0
44.106,1625.0
44.1394,1572.0
44.1729,1608.0
44.2063,1614.0
44.2397,1587.0
44.2731,1694.0
44.3065,1700.0
44.34,1691.0
44.3734,1603.0
44.4068,1563.0
44.4402,1611.0
44.4737,1601.0
44.5071,1636.0
44.5405,1598.0
44.5739,1577.0
44.6073,1660.0
44.6408,1679.0
44.6742,1565.0
44.7076,1621.0
44.741,1582.0
44.7745,1664.0
44.8079,1627.0
44.8413,1577.0
44.8747,1685.0
44.9081,1545.0
44.9416,1664.0
44.975,1629.0
45.0084,1637.0
45.0418,1581.0
45.0753,1646.0
45.1087,1557.0
45.1421,1575.0
45.1755,1587.0
45.2089,1670.0
45.2424,1564.0
45.2758,1693.0
45.3092,1569.0
45.3426,1594.0
45.3761,1557.0
45.4095,1580.0
45.4429,1519.0
45.4763,1493.0
45.5098,1588.0
45.5432,1614.0
45.5766,1558.0
45.61,1526.0
45.6434,1632.0
45.6769,1582.0
45.7103,1600.0
45.7437,1600.0
45.7771,1588.0
45.8106,1677.0
45.844,1624.0
45.8774,1579.0
45.9108,1616.0
45.9442,1598.0
45.9777,1611.0
46.0111,1568.0
46.0445,1658.0
46.0779,1581.0
46.1114,1577.0
46.1448,1611.0
46.1782,1537.0
46.2116,1567.0
46.245,1541.0
46.2785,1556.0
46.3119,1538.0
46.3453,1621.0
46.3787,1612.0
46.4122,1580.0
46.4456,1595.0
46.479,1571.0
46.5124,1631.0
46.5459,1528.0
46.5793,1591.0
46.6127,1635.0
46.6461,1603.0
46.6795,1620.0
46.713,1592.0
46.7464,1589.0
46.7798,1589.0
46.8132,1653.0
46.8467,1598.0
46.8801,1617.0
46.9135,1642.0
46.9469,1615.0
46.9803,1600.0
47.0138,1595.0
47.0472,1613.0
47.0806,1538.0
47.114,1679.0
47.1475,1548.0
47.1809,1569.0
47.2143,1564.0
47.2477,1569.0
47.2811,1574.0
47.3146,1612.0
47.348,1593.0
47.3814,1569.0
47.4148,1547.0
47.4483,1568.0
47.4817,1546.0
47.5151,1536.0
47.5485,1614.0
47.5819,1593.0
47.6154,1668.0
47.6488,1535.0
47.6822,1581.0
47.7156,1614.0
47.7491,1528.0
47.7825,1546.0
47.8159,1631.0
47.8493,1563.0
47.8828,1584.0
47.9162,1607.0
47.9496,1579.0
47.983,1631.0
48.0164,1749.0
48.0499,1648.0
48.0833,1661.0
48.1167,1628.0
48.1501,1609.0
48.1836,1645.0
48.217,1651.0
48.2504,1646.0
48.2838,1695.0
48.3172,1686.0
48.3507,1722.0
48.3841,1707.0
48.4175,1661.0
48.4509,1694.0
48.4844,1679.0
48.5178,1786.0
48.5512,1730.0
48.5846,1749.0
48.618,1831.0
48.6515,1849.0
48.6849,1913.0
48.7183,1943.0
48.7517,1980.0
48.7852,1986.0
48.8186,2064.0
48.852,2092.0
48.8854,2052.0
48.9189,2043.0
48.9523,2040.0
48.9857,2086.0
49.0191,2003.0
49.0525,1980.0
49.086,1896.0
49.1194,1946.0
49.1528,1949.0
49.1862,1920.0
49.2197,1843.0
49.2531,1962.0
49.2865,1920.0
49.3199,1830.0
49.3533,1827.0
49.3868,1819.0
49.4202,1814.0
49.4536,1778.0
49.487,1841.0
49.5205,1701.0
49.5539,1789.0
49.5873,1772.0
49.6207,1772.0
49.6541,1819.0
49.6876,1857.0
49.721,1814.0
49.7544,1768.0
49.7878,1826.0
49.8213,1827.0
49.8547,1827.0
49.8881,1904.0
49.9215,1873.0
49.9549,1876.0
49.9884,1899.0
50.0218,1808.0
50.0552,1848.0
50.0886,1917.0
50.1221,1784.0
50.1555,1729.0
50.1889,1711.0
50.2223,1693.0
50.2558,1697.0
50.2892,1726.0
50.3226,1643.0
50.356,1610.0
50.3894,1609.0
50.4229,1592.0
50.4563,1643.0
50.4897,1687.0
50.5231,1652.0
50.5566,1632.0
50.59,1559.0
50.6234,1559.0
50.6568,1621.0
50.6902,1645.0
50.7237,1604.0
50.7571,1547.0
50.7905,1576.0
50.8239,1514.0
50.8574,1594.0
50.8908,1564.0
50.9242,1617.0
50.9576,1511.0
50.991,1516.0
51.0245,1496.0
51.0579,1558.0
51.0913,1590.0
51.1247,1498.0
51.1582,1562.0
51.1916,1580.0
51.225,1547.0
51.2584,1617.0
51.2919,1524.0
51.3253,1503.0
51.3587,1497.0
51.3921,1545.0
51.4255,1534.0
51.459,1518.0
51.4924,1558.0
51.5258,1567.0
51.5592,1464.0
51.5927,1510.0
51.6261,1583.0
51.6595,1608.0
51.6929,1531.0
51.7263,1488.0
51.7598,1501.0
51.7932,1554.0
51.8266,1544.0
51.86,1617.0
51.8935,1522.0
51.9269,1467.0
51.9603,1520.0
51.9937,1645.0
52.0271,1585.0
52.0606,1594.0
52.094,1619.0
52.1274,1589.0
52.1608,1529.0
52.1943,1613.0
52.2277,1598.0
52.2611,1620.0
52.2945,1598.0
52.3279,1651.0
52.3614,1592.0
52.3948,1641.0
52.4282,1588.0
52.4616,1645.0
52.4951,1659.0
52.5285,1641.0
52.5619,1594.0
52.5953,1693.0
52.6288,1701.0
52.6622,1715.0
52.6956,1697.0
52.729,1700.0
52.7624,1651.0
52.7959,1735.0
52.8293,1736.0
52.8627,1769.0
52.8961,1823.0
52.9296,1777.0
52.963,1809.0
52.9964,1832.0
53.0298,1795.0
53.0632,1813.0
53.0967,1843.0
53.1301,1864.0
53.1635,1929.0
53.1969,1848.0
53.2304,1849.0
53.2638,1878.0
53.2972,1839.0
53.3306,1864.0
53.364,1808.0
53.3975,1831.0
53.4309,1812.0
53.4643,1805.0
53.4977,1764.0
53.5312,1702.0
53.5646,1748.0
53.598,1757.0
53.6314,1681.0
53.6649,1766.0
53.6983,1776.0
53.7317,1706.0
53.7651,1726.0
53.7985,1804.0
53.832,1722.0
53.8654,1773.0
53.8988,1714.0
53.9322,1656.0
53.9657,1783.0
53.9991,1689.0
54.0325,1702.0
54.0659,1799.0
54.0993,1711.0
54.1328,1826.0
54.1662,1827.0
54.1996,1846.0
54.233,1808.0
54.2665,1802.0
54.2999,1841.0
54.3333,1812.0
54.3667,1856.0
54.4001,1901.0
54.4336,1887.0
54.467,1967.0
54.5004,1905.0
54.5338,2035.0
54.5673,2032.0
54.6007,1990.0
54.6341,2047.0
54.6675,2016.0
54.701,2039.0
54.7344,2034.0
54.7678,1967.0
54.8012,2033.0
54.8346,1950.0
54.8681,1917.0
54.9015,2007.0
54.9349,1922.0
54.9683,1920.0
55.0018,1939.0
55.0352,1896.0
55.0686,1972.0
55.102,1964.0
55.1354,1877.0
55.1689,1902.0
55.2023,1941.0
55.2357,1942.0
55.2691,1820.0
55.3026,1776.0
55.336,1925.0
55.3694,1897.0
55.4028,1994.0
55.4362,1895.0
55.4697,2017.0
55.5031,1964.0
55.5365,1920.0
55.5699,1913.0
55.6034,1922.0
55.6368,1951.0
55.6702,1857.0
55.7036,1873.0
55.737,1849.0
55.7705,1780.0
55.8039,1755.0
55.8373,1839.0
55.8707,1825.0
55.9042,1707.0
55.9376,1781.0
55.971,1747.0
56.0044,1805.0
56.0379,1764.0
56.0713,1795.0
56.1047,1747.0
56.1381,1797.0
56.1715,1693.0
56.205,1710.0
56.2384,1711.0
56.2718,1773.0
56.3052,1830.0
56.3387,1709.0
56.3721,1652.0
56.4055,1731.0
56.4389,1763.0
56.4723,1710.0
56.5058,1611.0
56.5392,1674.0
56.5726,1710.0
56.606,1666.0
56.6395,1751.0
56.6729,1748.0
56.7063,1845.0
56.7397,1703.0
56.7731,1732.0
56.8066,1698.0
56.84,1784.0
56.8734,1691.0
56.9068,1832.0
56.9403,1734.0
56.9737,1686.0
57.0071,1755.0
57.0405,1827.0
57.074,1817.0
57.1074,1770.0
57.1408,1751.0
57.1742,1779.0
57.2076,1708.0
57.2411,1834.0
57.2745,1741.0
57.3079,1686.0
57.3413,1719.0
57.3748,1756.0
57.4082,1673.0
57.4416,1651.0
57.475,1731.0
57.5084,1732.0
57.5419,1648.0
57.5753,1710.0
57.6087,1740.0
57.6421,1605.0
57.6756,1703.0
57.709,1590.0
57.7424,1563.0
57.7758,1612.0
57.8092,1556.0
57.8427,1579.0
57.8761,1641.0
57.9095,1641.0
57.9429,1669.0
57.9764,1655.0
58.0098,1553.0
58.0432,1598.0
58.0766,1685.0
58.11,1609.0
58.1435,1726.0
58.1769,1628.0
58.2103,1621.0
58.2437,1697.0
58.2772,1655.0
58.3106,1605.0
58.344,1667.0
58.3774,1673.0
58.4109,1615.0
58.4443,1587.0
58.4777,1607.0
58.5111,1626.0
58.5445,1566.0
58.578,1585.0
58.6114,1638.0
58.6448,1652.0
58.6782,1588.0
58.7117,1564.0
58.7451,1567.0
58.7785,1545.0
58.8119,1587.0
58.8453,1598.0
58.8788,1629.0
58.9122,1596.0
58.9456,1640.0
58.979,1528.0
59.0125,1538.0
59.0459,1605.0
59.0793,1619.0
59.1127,1542.0
59.1461,1509.0
59.1796,1512.0
59.213,1613.0
59.2464,1507.0
59.2798,1518.0
59.3133,1537.0
59.3467,1563.0
59.3801,1514.0
59.4135,1607.0
59.447,1559.0
59.4804,1601.0
59.5138,1573.0
59.5472,1485.0
59.5806,1564.0
59.6141,1573.0
59.6475,1556.0
59.6809,1520.0
59.7143,1560.0
59.7478,1652.0
59.7812,1597.0
59.8146,1625.0
59.848,1504.0
59.8814,1549.0
59.9149,1506.0
59.9483,1630.0
59.9817,1591.0
60.0151,1571.0
60.0486,1557.0
60.082,1622.0
60.1154,1569.0
60.1488,1623.0
60.1822,1554.0
60.2157,1616.0
60.2491,1608.0
60.2825,1530.0
60.3159,1590.0
60.3494,1611.0
60.3828,1569.0
60.4162,1596.0
60.4496,1604.0
60.483,1598.0
60.5165,1579.0
60.5499,1630.0
60.5833,1590.0
60.6167,1627.0
60.6502,1556.0
60.6836,1601.0
60.717,1528.0
60.7504,1576.0
60.7839,1658.0
60.8173,1687.0
60.8507,1656.0
60.8841,1512.0
60.9175,1550.0
60.951,1578.0
60.9844,1645.0
61.0178,1587.0
61.0512,1664.0
61.0847,1650.0
61.1181,1613.0
61.1515,1584.0
61.1849,1611.0
61.2183,1532.0
61.2518,1525.0
61.2852,1512.0
61.3186,1616.0
61.352,1544.0
61.3855,1527.0
61.4189,1574.0
61.4523,1587.0
61.4857,1568.0
61.5191,1650.0
61.5526,1590.0
61.586,1622.0
61.6194,1578.0
61.6528,1605.0
61.6863,1616.0
61.7197,1599.0
61.7531,1629.0
61.7865,1582.0
61.82,1630.0
61.8534,1621.0
61.8868,1574.0
61.9202,1597.0
61.9536,1585.0
61.9871,1657.0
62.0205,1736.0
62.0539,1720.0
62.0873,1685.0
62.1208,1642.0
62.1542,1647.0
62.1876,1753.0
62.221,1621.0
62.2544,1718.0
62.2879,1749.0
62.3213,1707.0
62.3547,1685.0
62.3881,1657.0
62.4216,1701.0
62.455,1708.0
62.4884,1735.0
62.5218,1777.0
62.5552,1770.0
62.5887,1706.0
62.6221,1757.0
62.6555,1805.0
62.6889,1736.0
62.7224,1786.0
62.7558,1717.0
62.7892,1764.0
62.8226,1794.0
62.856,1732.0
62.8895,1726.0
62.9229,1762.0
62.9563,1624.0
62.9897,1742.0
63.0232,1782.0
63.0566,1739.0
63.09,1730.0
63.1234,1613.0
63.1569,1655.0
63.1903,1672.0
63.2237,1691.0
63.2571,1672.0
63.2905,1722.0
63.324,1723.0
63.3574,1708.0
63.3908,1648.0
63.4242,1693.0
63.4577,1642.0
63.4911,1678.0
63.5245,1723.0
63.5579,1738.0
63.5913,1631.0
63.6248,1684.0
63.6582,1685.0
63.6916,1619.0
63.725,1636.0
63.7585,1638.0
63.7919,1670.0
63.8253,1552.0
63.8587,1685.0
63.8921,1699.0
63.9256,1608.0
63.959,1640.0
63.9924,1596.0
64.0258,1638.0
64.0593,1567.0
64.0927,1593.0
64.1261,1566.0
64.1595,1606.0
64.193,1549.0
64.2264,1600.0
64.2598,1563.0
64.2932,1512.0
64.3266,1616.0
64.3601,1590.0
64.3935,1587.0
64.4269,1605.0
64.4603,1549.0
64.4938,1438.0
64.5272,1568.0
64.5606,1521.0
64.594,1483.0
64.6274,1526.0
64.6609,1489.0
64.6943,1645.0
64.7277,1579.0
64.7611,1603.0
64.7946,1550.0
64.828,1551.0
64.8614,1500.0
64.8948,1589.0
64.9282,1564.0
64.9617,1502.0
64.9951,1522.0
65.0285,1551.0
65.0619,1532.0
65.0954,1551.0
65.1288,1465.0
65.1622,1516.0
65.1956,1554.0
65.229,1551.0
65.2625,1477.0
65.2959,1501.0
65.3293,1520.0
65.3627,1615.0
65.3962,1580.0
65.4296,1533.0
65.463,1519.0
65.4964,1538.0
65.5299,1465.0
65.5633,1572.0
65.5967,1558.0
65.6301,1541.0
65.6635,1422.0
65.697,1552.0
65.7304,1533.0
65.7638,1515.0
65.7972,1524.0
65.8307,1550.0
65.8641,1495.0
65.8975,1474.0
65.9309,1518.0
65.9643,1568.0
65.9978,1522.0
66.0312,1583.0
66.0646,1454.0
66.098,1441.0
66.1315,1554.0
66.1649,1533.0
66.1983,1510.0
66.2317,1500.0
66.2651,1444.0
66.2986,1568.0
66.332,1513.0
66.3654,1448.0
66.3988,1506.0
66.4323,1481.0
66.4657,1522.0
66.4991,1529.0
66.5325,1466.0
66.566,1580.0
66.5994,1533.0
66.6328,1511.0
66.6662,1449.0
66.6996,1513.0
66.7331,1524.0
66.7665,1554.0
66.7999,1490.0
66.8333,1482.0
66.8668,1526.0
66.9002,1483.0
66.9336,1458.0
66.967,1459.0
67.0004,1491.0
67.0339,1517.0
67.0673,1485.0
67.1007,1484.0
67.1341,1535.0
67.1676,1428.0
67.201,1467.0
67.2344,1536.0
67.2678,1511.0
67.3012,1507.0
67.3347,1493.0
67.3681,1499.0
67.4015,1513.0
67.4349,1464.0
67.4684,1559.0
67.5018,1522.0
67.5352,1451.0
67.5686,1451.0
67.602,1580.0
67.6355,1475.0
67.6689,1532.0
67.7023,1491.0
67.7357,1530.0
67.7692,1571.0
67.8026,1515.0
67.836,1530.0
67.8694,1647.0
67.9029,1451.0
67.9363,1577.0
67.9697,1526.0
68.0031,1529.0
68.0365,1584.0
68.07,1534.0
68.1034,1550.0
68.1368,1513.0
68.1702,1554.0
68.2037,1590.0
68.2371,1577.0
68.2705,1504.0
68.3039,1564.0
68.3373,1557.0
68.3708,1526.0
68.4042,1494.0
68.4376,1535.0
68.471,1553.0
68.5045,1497.0
68.5379,1530.0
68.5713,1519.0
68.6047,1485.0
68.6381,1567.0
68.6716,1535.0
68.705,1420.0
68.7384,1521.0
68.7718,1497.0
68.8053,1471.0
68.8387,1528.0
68.8721,1438.0
68.9055,1639.0
68.939,1525.0
68.9724,1503.0
69.0058,1512.0
69.0392,1501.0
69.0726,1540.0
69.1061,1554.0
69.1395,1526.0
69.1729,1509.0
69.2063,1598.0
69.2398,1455.0
69.2732,1481.0
69.3066,1517.0
69.34,1528.0
69.3734,1556.0
69.4069,1585.0
69.4403,1567.0
69.4737,1544.0
69.5071,1514.0
69.5406,1503.0
69.574,1524.0
69.6074,1520.0
69.6408,1536.0
69.6742,1416.0
69.7077,1542.0
69.7411,1516.0
69.7745,1510.0
69.8079,1497.0
69.8414,1489.0
69.8748,1626.0
69.9082,1577.0
69.9416,1452.0
69.975,1507.0
69.9918,1543.0