File: herald_visualization/Delia_Scripts/CoF3/CoF3_1to1_KS6Lgraphite/updated_analysis_and_exports/CoF3-20min-fit-data.csv
"No.","Pos. [°2θ]","Q [1/Å]","Icalc [cts]","Iback [cts]","ESD","D spacings","CT [s]","Intensity [Counts]"
"1","20.0084","1.4170","16696.5","16689","129.1859","4.4341","99.6950","16689"
"6","20.0934","1.4230","16610.5","16602.7","128.5266","4.4156","99.6950","16519.1"
"11","20.1784","1.4289","16524.5","16516.3","128.2703","4.3972","99.6950","16453.3"
"16","20.2634","1.4349","16438.5","16430","128.1182","4.3789","99.6950","16414.3"
"21","20.3484","1.4408","16373.6","16364.8","127.7329","4.3608","99.6950","16315.7"
"26","20.4334","1.4468","16308.8","16299.6","127.4975","4.3429","99.6950","16255.6"
"31","20.5184","1.4527","16244","16234.4","127.6036","4.3251","99.6950","16282.7"
"36","20.6034","1.4587","16179.2","16169.2","126.9856","4.3074","99.6950","16125.3"
"41","20.6884","1.4646","16114.5","16104","126.7498","4.2899","99.6950","16065.5"
"46","20.7734","1.4706","16050.1","16038.8","126.4623","4.2725","99.6950","15992.7"
"51","20.8584","1.4765","15998.2","15986.2","126.4584","4.2553","99.6950","15991.7"
"56","20.9434","1.4825","15946.1","15933.6","126.2603","4.2382","99.6950","15941.7"
"61","21.0284","1.4884","15894.2","15881","126.7342","4.2213","99.6950","16061.5"
"66","21.1134","1.4944","15842.2","15828.4","126.1008","4.2045","99.6950","15901.4"
"71","21.1984","1.5003","15790.3","15775.8","126.3418","4.1878","99.6950","15962.2"
"76","21.2834","1.5063","15738.5","15723.2","125.7178","4.1713","99.6950","15805"
"81","21.3684","1.5122","15699.6","15683.4","125.4285","4.1549","99.6950","15732.3"
"86","21.4534","1.5182","15660.7","15643.7","125.2187","4.1386","99.6950","15679.7"
"91","21.5384","1.5241","15621.9","15603.9","125.2290","4.1225","99.6950","15682.3"
"96","21.6234","1.5301","15583.2","15564.1","125.0170","4.1065","99.6950","15629.3"
"101","21.7084","1.5360","15544.6","15524.3","125.1033","4.0906","99.6950","15650.8"
"106","21.7934","1.5420","15506.2","15484.6","124.5584","4.0748","99.6950","15514.8"
"111","21.8784","1.5479","15466.9","15443.9","124.6981","4.0592","99.6950","15549.6"
"116","21.9634","1.5538","15427.7","15403.2","124.9195","4.0437","99.6950","15604.9"
"121","22.0484","1.5598","15388.8","15362.5","123.7961","4.0283","99.6950","15325.5"
"126","22.1334","1.5657","15353.3","15325","124.2212","4.0130","99.6950","15430.9"
"131","22.2184","1.5716","15318","15287.6","123.5630","3.9978","99.6950","15267.8"
"136","22.3034","1.5776","15283","15250.2","124.0615","3.9828","99.6950","15391.3"
"141","22.3884","1.5835","15246.7","15211.2","123.2870","3.9679","99.6950","15199.7"
"146","22.4734","1.5895","15210.7","15172.2","123.5967","3.9530","99.6950","15276.1"
"151","22.5584","1.5954","15175.1","15133.2","123.7430","3.9383","99.6950","15312.3"
"156","22.6434","1.6013","15140","15094.2","123.1864","3.9237","99.6950","15174.9"
"161","22.7284","1.6073","15105.5","15055.1","122.9752","3.9093","99.6950","15122.9"
"166","22.8134","1.6132","15071.7","15016.1","122.9009","3.8949","99.6950","15104.6"
"171","22.8984","1.6191","15037.2","14975.5","122.1657","3.8806","99.6950","14924.5"
"176","22.9834","1.6250","15003.7","14934.9","122.1860","3.8665","99.6950","14929.4"
"181","23.0684","1.6310","14971.5","14894.3","122.6619","3.8524","99.6950","15045.9"
"186","23.1534","1.6369","14939.2","14851.9","121.4051","3.8385","99.6950","14739.2"
"191","23.2384","1.6428","14909.2","14809.5","121.4592","3.8246","99.6950","14752.3"
"196","23.3234","1.6488","14881.8","14767.1","121.3464","3.8109","99.6950","14725"
"201","23.4084","1.6547","14900.6","14767.4","121.9021","3.7972","99.6950","14860.1"
"206","23.4934","1.6606","14924.1","14767.8","122.1769","3.7837","99.6950","14927.2"
"211","23.5784","1.6665","14954.3","14768.1","121.8257","3.7702","99.6950","14841.5"
"216","23.6634","1.6725","14992","14766.2","122.2846","3.7569","99.6950","14953.5"
"221","23.7484","1.6784","15045.4","14764.4","121.9661","3.7436","99.6950","14875.7"
"226","23.8334","1.6843","15129","14762.6","123.3097","3.7305","99.6950","15205.3"
"231","23.9184","1.6902","15274.2","14758.6","123.9126","3.7174","99.6950","15354.3"
"236","24.0034","1.6961","15552.1","14754.7","125.5407","3.7044","99.6950","15760.5"
"241","24.0884","1.7020","16071.6","14750.8","126.8454","3.6915","99.6950","16089.8"
"246","24.1734","1.7080","16942.1","14744.9","130.9477","3.6788","99.6950","17147.3"
"251","24.2584","1.7139","18180.7","14739","134.8417","3.6661","99.6950","18182.3"
"256","24.3434","1.7198","19548.9","14733.1","140.3622","3.6534","99.6950","19701.5"
"261","24.4284","1.7257","20403.6","14725.2","144.5792","3.6409","99.6950","20903.1"
"266","24.5134","1.7316","20105.9","14717.3","142.8224","3.6285","99.6950","20398.2"
"271","24.5984","1.7375","18899.7","14709.4","137.8546","3.6161","99.6950","19003.9"
"276","24.6834","1.7434","17526.8","14699.4","131.8444","3.6039","99.6950","17382.9"
"281","24.7684","1.7494","16435.6","14689.5","127.5757","3.5917","99.6950","16275.6"
"286","24.8534","1.7553","15724.8","14679.5","125.5169","3.5796","99.6950","15754.5"
"291","24.9384","1.7612","15319.2","14669.5","123.8422","3.5676","99.6950","15336.9"
"296","25.0234","1.7671","15100.5","14659.6","122.6141","3.5557","99.6950","15034.2"
"301","25.1084","1.7730","14977.6","14649.6","120.9717","3.5438","99.6950","14634.1"
"306","25.1934","1.7789","14897.7","14637.6","120.5237","3.5321","99.6950","14526"
"311","25.2784","1.7848","14840.1","14625.5","121.6930","3.5204","99.6950","14809.2"
"316","25.3634","1.7907","14795.1","14613.5","121.1570","3.5088","99.6950","14679"
"321","25.4484","1.7966","14756.3","14599.4","120.6481","3.4973","99.6950","14556"
"326","25.5334","1.8025","14723.7","14585.3","120.7925","3.4858","99.6950","14590.8"
"331","25.6184","1.8084","14695.8","14571.1","121.0223","3.4744","99.6950","14646.4"
"336","25.7034","1.8143","14669.8","14554.8","120.2144","3.4631","99.6950","14451.5"
"341","25.7884","1.8202","14647.8","14538.5","120.6772","3.4519","99.6950","14563"
"346","25.8734","1.8261","14630.6","14522.2","120.7105","3.4408","99.6950","14571"
"351","25.9584","1.8320","14622.7","14508.6","120.5080","3.4297","99.6950","14522.2"
"356","26.0434","1.8379","14624.1","14495","121.1459","3.4187","99.6950","14676.3"
"361","26.1284","1.8438","14638.4","14481.4","120.1868","3.4078","99.6950","14444.9"
"366","26.2134","1.8497","14665.7","14465.5","120.8530","3.3969","99.6950","14605.4"
"371","26.2984","1.8556","14708.4","14449.5","120.9751","3.3861","99.6950","14635"
"376","26.3834","1.8615","14762.2","14433.6","122.0828","3.3754","99.6950","14904.2"
"381","26.4684","1.8674","14814.9","14415.3","121.3346","3.3648","99.6950","14722.1"
"386","26.5534","1.8732","14858.2","14397","121.4407","3.3542","99.6950","14747.8"
"391","26.6384","1.8791","14891.9","14378.7","121.2193","3.3437","99.6950","14694.1"
"396","26.7234","1.8850","14915.5","14358.1","121.5252","3.3332","99.6950","14768.4"
"401","26.8084","1.8909","14892.3","14337.5","121.9654","3.3228","99.6950","14875.6"
"406","26.8934","1.8968","14774.3","14316.8","121.7214","3.3125","99.6950","14816.1"
"411","26.9784","1.9027","14607.5","14294","120.3761","3.3023","99.6950","14490.4"
"416","27.0634","1.9086","14465.4","14271.1","120.5642","3.2921","99.6950","14535.7"
"421","27.1484","1.9144","14368.8","14248.3","120.1759","3.2820","99.6950","14442.3"
"426","27.2334","1.9203","14307.1","14225.5","119.1533","3.2720","99.6950","14197.5"
"431","27.3184","1.9262","14264.4","14202.6","119.4351","3.2620","99.6950","14264.7"
"436","27.4034","1.9321","14230.1","14179.8","119.4476","3.2520","99.6950","14267.7"
"441","27.4884","1.9380","14197.5","14154.7","118.5343","3.2422","99.6950","14050.4"
"446","27.5734","1.9438","14166.9","14129.7","119.7653","3.2324","99.6950","14343.7"
"451","27.6584","1.9497","14137.6","14104.6","119.3409","3.2226","99.6950","14242.3"
"456","27.7434","1.9556","14107","14077.5","118.9197","3.2130","99.6950","14141.9"
"461","27.8284","1.9615","14077.1","14050.4","119.0737","3.2033","99.6950","14178.5"
"466","27.9134","1.9673","14047.6","14023.3","118.5867","3.1938","99.6950","14062.8"
"471","27.9984","1.9732","14018.1","13995.9","119.0920","3.1843","99.6950","14182.9"
"476","28.0834","1.9791","13989","13968.5","118.2911","3.1748","99.6950","13992.8"
"481","28.1684","1.9849","13960.1","13941.1","118.4045","3.1654","99.6950","14019.6"
"486","28.2534","1.9908","13938.1","13920.4","118.5597","3.1561","99.6950","14056.4"
"491","28.3384","1.9967","13916.3","13899.7","117.8010","3.1468","99.6950","13877.1"
"496","28.4234","2.0025","13894.6","13879","118.4811","3.1376","99.6950","14037.8"
"501","28.5084","2.0084","13870.9","13856.3","117.1248","3.1284","99.6950","13718.2"
"506","28.5934","2.0143","13847.4","13833.6","118.0609","3.1193","99.6950","13938.4"
"511","28.6784","2.0201","13823.9","13810.9","117.2155","3.1103","99.6950","13739.5"
"516","28.7634","2.0260","13800.5","13788.2","117.1725","3.1013","99.6950","13729.4"
"521","28.8484","2.0319","13777.3","13765.4","117.2998","3.0923","99.6950","13759.3"
"526","28.9334","2.0377","13754.1","13742.7","117.1999","3.0835","99.6950","13735.8"
"531","29.0184","2.0436","13724.7","13721","116.8604","3.0746","99.6950","13656.4"
"536","29.1034","2.0494","13702.7","13699.2","117.1761","3.0658","99.6950","13730.2"
"541","29.1884","2.0553","13680.7","13677.5","117.1379","3.0571","99.6950","13721.3"
"546","29.2734","2.0611","13658.9","13655.8","117.5817","3.0484","99.6950","13825.5"
"551","29.3584","2.0670","13637.1","13634.2","117.0933","3.0398","99.6950","13710.8"
"556","29.4434","2.0728","13615.3","13612.6","116.6068","3.0312","99.6950","13597.1"
"561","29.5284","2.0787","13606","13602.6","116.1192","3.0227","99.6950","13483.7"
"566","29.6134","2.0845","13596.4","13592.7","117.2720","3.0142","99.6950","13752.7"
"571","29.6984","2.0904","13586.4","13582.8","116.7974","3.0057","99.6950","13641.6"
"576","29.7834","2.0962","13576.4","13572.8","117.2415","2.9974","99.6950","13745.6"
"581","29.8684","2.1021","13566.4","13562.9","117.0683","2.9890","99.6950","13705"
"586","29.9534","2.1079","13556.4","13553","116.6604","2.9807","99.6950","13609.7"
"591","30.0384","2.1138","13543.7","13540.3","115.7093","2.9725","99.6950","13388.7"
"596","30.1234","2.1196","13531","13527.6","116.0392","2.9643","99.6950","13465.1"
"601","30.2084","2.1255","13518.4","13514.9","115.9580","2.9562","99.6950","13446.3"
"606","30.2934","2.1313","13505.5","13502","116.0235","2.9481","99.6950","13461.5"
"611","30.3784","2.1371","13492.4","13489.1","116.1949","2.9400","99.6950","13501.3"
"616","30.4634","2.1430","13479.4","13476.2","116.4740","2.9320","99.6950","13566.2"
"621","30.5484","2.1488","13465.2","13462","116.2279","2.9240","99.6950","13508.9"
"626","30.6334","2.1547","13451","13447.7","115.4195","2.9161","99.6950","13321.6"
"631","30.7184","2.1605","13436.8","13433.4","117.0666","2.9082","99.6950","13704.6"
"636","30.8034","2.1663","13422.6","13419.1","115.2961","2.9004","99.6950","13293.2"
"641","30.8884","2.1722","13408.4","13404.8","116.1222","2.8926","99.6950","13484.4"
"646","30.9734","2.1780","13394.3","13390.6","116.7473","2.8849","99.6950","13629.9"
"651","31.0584","2.1838","13378.7","13374.9","116.2330","2.8772","99.6950","13510.1"
"656","31.1434","2.1896","13363.5","13359.2","115.7487","2.8695","99.6950","13397.8"
"661","31.2284","2.1955","13348.2","13343.5","115.3752","2.8619","99.6950","13311.4"
"666","31.3134","2.2013","13341.6","13336.7","115.8229","2.8543","99.6950","13415"
"671","31.3984","2.2071","13335","13329.9","116.2584","2.8468","99.6950","13516"
"676","31.4834","2.2129","13328.5","13323.1","115.2904","2.8393","99.6950","13291.9"
"681","31.5684","2.2188","13320.2","13314.5","114.8252","2.8318","99.6950","13184.8"
"686","31.6534","2.2246","13311.9","13305.9","115.6843","2.8244","99.6950","13382.9"
"691","31.7384","2.2304","13303.6","13297.3","115.9018","2.8170","99.6950","13433.2"
"696","31.8234","2.2362","13295.4","13288.7","115.1474","2.8097","99.6950","13258.9"
"701","31.9084","2.2421","13287.3","13280.1","115.6415","2.8024","99.6950","13373"
"706","31.9934","2.2479","13279.2","13271.4","115.5674","2.7952","99.6950","13355.8"
"711","32.0784","2.2537","13269.3","13261","115.3293","2.7880","99.6950","13300.8"
"716","32.1634","2.2595","13259.6","13250.6","115.5585","2.7808","99.6950","13353.8"
"721","32.2484","2.2653","13249.9","13240.1","115.0066","2.7737","99.6950","13226.5"
"726","32.3334","2.2711","13251.3","13240.9","114.9210","2.7666","99.6950","13206.8"
"731","32.4184","2.2769","13252.9","13241.7","115.0391","2.7595","99.6950","13234"
"736","32.5034","2.2827","13254.9","13242.5","115.5582","2.7525","99.6950","13353.7"
"741","32.5884","2.2886","13257.1","13243.3","115.1899","2.7455","99.6950","13268.7"
"746","32.6734","2.2944","13259.5","13244","116.2200","2.7385","99.6950","13507.1"
"751","32.7584","2.3002","13262.2","13244.8","115.8855","2.7316","99.6950","13429.5"
"756","32.8434","2.3060","13262.6","13242.8","115.8167","2.7248","99.6950","13413.5"
"761","32.9284","2.3118","13263.5","13240.8","115.1619","2.7179","99.6950","13262.3"
"766","33.0134","2.3176","13265.2","13238.8","114.7629","2.7111","99.6950","13170.5"
"771","33.0984","2.3234","13272.1","13241.2","115.3410","2.7043","99.6950","13303.5"
"776","33.1834","2.3292","13280.5","13243.6","115.3682","2.6976","99.6950","13309.8"
"781","33.2684","2.3350","13291","13246","115.6151","2.6909","99.6950","13366.9"
"786","33.3534","2.3408","13303.2","13246.1","115.3092","2.6842","99.6950","13296.2"
"791","33.4384","2.3466","13323.5","13246.2","115.4413","2.6776","99.6950","13326.7"
"796","33.5234","2.3524","13360.8","13246.3","116.1570","2.6710","99.6950","13492.4"
"801","33.6084","2.3581","13427.8","13244.1","115.9961","2.6645","99.6950","13455.1"
"806","33.6934","2.3639","13544.3","13241.9","117.7935","2.6579","99.6950","13875.3"
"811","33.7784","2.3697","13718.1","13239.6","116.7918","2.6514","99.6950","13640.3"
"816","33.8634","2.3755","13923.2","13235.1","116.8434","2.6450","99.6950","13652.4"
"821","33.9484","2.3813","14082.2","13230.5","118.8078","2.6385","99.6950","14115.3"
"826","34.0334","2.3871","14091.4","13225.9","118.1856","2.6322","99.6950","13967.8"
"831","34.1184","2.3929","13948.7","13221.3","117.0289","2.6258","99.6950","13695.8"
"836","34.2034","2.3987","13752.6","13216.7","117.0285","2.6195","99.6950","13695.7"
"841","34.2884","2.4044","13588.5","13212.2","117.7570","2.6132","99.6950","13866.7"
"846","34.3734","2.4102","13484.2","13205.2","116.6876","2.6069","99.6950","13616"
"851","34.4584","2.4160","13435","13198.3","115.9195","2.6007","99.6950","13437.3"
"856","34.5434","2.4218","13417.8","13191.4","115.7279","2.5944","99.6950","13392.9"
"861","34.6284","2.4276","13404.4","13182.2","115.4344","2.5883","99.6950","13325.1"
"866","34.7134","2.4333","13379.9","13172.9","114.8213","2.5821","99.6950","13183.9"
"871","34.7984","2.4391","13342.2","13163.6","114.8156","2.5760","99.6950","13182.6"
"876","34.8834","2.4449","13297.3","13152.1","115.3747","2.5699","99.6950","13311.3"
"881","34.9684","2.4507","13255.9","13140.6","115.0856","2.5639","99.6950","13244.7"
"886","35.0534","2.4564","13223.1","13129.1","114.2688","2.5579","99.6950","13057.4"
"891","35.1384","2.4622","13206.2","13121.6","115.2781","2.5519","99.6950","13289"
"896","35.2234","2.4680","13204.5","13114.2","114.3628","2.5459","99.6950","13078.8"
"901","35.3084","2.4737","13223.1","13106.7","114.4498","2.5400","99.6950","13098.8"
"906","35.3934","2.4795","13264.3","13097.1","115.6689","2.5341","99.6950","13379.3"
"911","35.4784","2.4853","13327.7","13087.5","114.5863","2.5282","99.6950","13130"
"916","35.5634","2.4910","13394.4","13078","115.1026","2.5223","99.6950","13248.6"
"921","35.6484","2.4968","13423.8","13068.4","115.2084","2.5165","99.6950","13273"
"926","35.7334","2.5025","13386.7","13058.8","115.0312","2.5107","99.6950","13232.2"
"931","35.8184","2.5083","13303","13049.2","114.6726","2.5050","99.6950","13149.8"
"936","35.9034","2.5141","13210.7","13037.4","115.0726","2.4992","99.6950","13241.7"
"941","35.9884","2.5198","13135.8","13025.7","114.7352","2.4935","99.6950","13164.2"
"946","36.0734","2.5256","13083.2","13013.9","114.5851","2.4878","99.6950","13129.7"
"951","36.1584","2.5313","13045.4","12999.5","115.2841","2.4822","99.6950","13290.4"
"956","36.2434","2.5371","13018.3","12985","114.1753","2.4766","99.6950","13036"
"961","36.3284","2.5428","12996.7","12970.6","113.8223","2.4710","99.6950","12955.5"
"966","36.4134","2.5486","12978.3","12956.7","114.3819","2.4654","99.6950","13083.2"
"971","36.4984","2.5543","12961.3","12942.8","113.3497","2.4598","99.6950","12848.2"
"976","36.5834","2.5601","12945","12928.8","113.9737","2.4543","99.6950","12990"
"981","36.6684","2.5658","12929.3","12914.9","113.5885","2.4488","99.6950","12902.3"
"986","36.7534","2.5715","12914.8","12901","114.7849","2.4434","99.6950","13175.6"
"991","36.8384","2.5773","12900.2","12887.1","112.8399","2.4379","99.6950","12732.8"
"996","36.9234","2.5830","12886.8","12874.6","113.9495","2.4325","99.6950","12984.5"
"1001","37.0084","2.5888","12873.7","12862","113.9424","2.4271","99.6950","12982.9"
"1006","37.0934","2.5945","12860.7","12849.5","113.5747","2.4217","99.6950","12899.2"
"1011","37.1784","2.6002","12849.2","12838.1","113.5255","2.4164","99.6950","12888"
"1016","37.2634","2.6060","12838.1","12826.7","113.2477","2.4111","99.6950","12825"
"1021","37.3484","2.6117","12827.4","12815.3","113.1456","2.4058","99.6950","12801.9"
"1026","37.4334","2.6174","12815.8","12802.1","113.4219","2.4005","99.6950","12864.5"
"1031","37.5184","2.6232","12805","12788.8","113.7154","2.3953","99.6950","12931.2"
"1036","37.6034","2.6289","12795.2","12775.6","113.3062","2.3901","99.6950","12838.3"
"1041","37.6884","2.6346","12786.1","12762.3","113.4168","2.3849","99.6950","12863.4"
"1046","37.7734","2.6403","12776.7","12749.1","113.7483","2.3797","99.6950","12938.7"
"1051","37.8584","2.6461","12765.6","12735.8","112.8555","2.3745","99.6950","12736.4"
"1056","37.9434","2.6518","12770.6","12741.4","112.9344","2.3694","99.6950","12754.2"
"1061","38.0284","2.6575","12773.1","12747","112.9236","2.3643","99.6950","12751.7"
"1066","38.1134","2.6632","12774.6","12752.7","113.4242","2.3592","99.6950","12865"
"1071","38.1984","2.6689","12774.8","12756.8","113.6831","2.3542","99.6950","12923.8"
"1076","38.2834","2.6747","12775.9","12761","113.8010","2.3492","99.6950","12950.7"
"1081","38.3684","2.6804","12777.9","12765.1","113.8510","2.3441","99.6950","12962.1"
"1086","38.4534","2.6861","12780.9","12769.3","112.8216","2.3392","99.6950","12728.7"
"1091","38.5384","2.6918","12783.8","12773.5","113.6683","2.3342","99.6950","12920.5"
"1096","38.6234","2.6975","12787.5","12777.6","113.0674","2.3293","99.6950","12784.2"
"1101","38.7084","2.7032","12795.1","12784.8","113.9127","2.3243","99.6950","12976.1"
"1106","38.7934","2.7089","12803","12792","113.5972","2.3194","99.6950","12904.3"
"1111","38.8784","2.7146","12811.4","12799.2","113.0147","2.3146","99.6950","12772.3"
"1116","38.9634","2.7203","12817.8","12803.7","113.8189","2.3097","99.6950","12954.7"
"1121","39.0484","2.7260","12825.5","12808.2","114.3508","2.3049","99.6950","13076.1"
"1126","39.1334","2.7317","12835.5","12812.7","113.4894","2.3001","99.6950","12879.8"
"1131","39.2184","2.7374","12847","12815","113.4978","2.2953","99.6950","12881.7"
"1136","39.3034","2.7431","12863","12817.3","113.4738","2.2905","99.6950","12876.3"
"1141","39.3884","2.7488","12882.3","12819.7","113.5912","2.2858","99.6950","12903"
"1146","39.4734","2.7545","12900.7","12822","113.4973","2.2810","99.6950","12881.6"
"1151","39.5584","2.7602","12913","12824.3","112.5807","2.2763","99.6950","12674.4"
"1156","39.6434","2.7659","12916.7","12826.7","113.3242","2.2716","99.6950","12842.4"
"1161","39.7284","2.7716","12910.1","12826.8","113.0691","2.2670","99.6950","12784.6"
"1166","39.8134","2.7773","12898.3","12827","112.5124","2.2623","99.6950","12659"
"1171","39.8984","2.7830","12885.6","12827.2","112.9751","2.2577","99.6950","12763.4"
"1176","39.9834","2.7887","12875","12827.6","113.2335","2.2531","99.6950","12821.8"
"1181","40.0684","2.7944","12867.6","12828","113.1529","2.2485","99.6950","12803.6"
"1186","40.1534","2.8000","12863.5","12828.4","113.7928","2.2440","99.6950","12948.8"
"1191","40.2384","2.8057","12862.6","12828.8","112.8354","2.2394","99.6950","12731.8"
"1196","40.3234","2.8114","12864.5","12829.3","113.1697","2.2349","99.6950","12807.4"
"1201","40.4084","2.8171","12868.8","12829.7","113.2524","2.2304","99.6950","12826.1"
"1206","40.4934","2.8228","12875.8","12829.9","113.2282","2.2259","99.6950","12820.6"
"1211","40.5784","2.8284","12886.8","12830.1","112.4354","2.2214","99.6950","12641.7"
"1216","40.6634","2.8341","12904.5","12830.3","113.3458","2.2170","99.6950","12847.3"
"1221","40.7484","2.8398","12932.7","12828.5","113.8547","2.2126","99.6950","12962.9"
"1226","40.8334","2.8455","12984.2","12826.8","113.7798","2.2081","99.6950","12945.8"
"1231","40.9184","2.8511","13075.1","12825","114.3169","2.2038","99.6950","13068.3"
"1236","41.0034","2.8568","13221.3","12823.2","114.7415","2.1994","99.6950","13165.6"
"1241","41.0884","2.8625","13420.9","12821.4","114.7407","2.1950","99.6950","13165.4"
"1246","41.1734","2.8681","13626.1","12819.6","115.1521","2.1907","99.6950","13260"
"1251","41.2584","2.8738","13730.1","12815.9","115.8696","2.1864","99.6950","13425.8"
"1256","41.3434","2.8795","13663.6","12812.1","115.8735","2.1821","99.6950","13426.7"
"1261","41.4284","2.8851","13475.2","12808.3","115.1303","2.1778","99.6950","13255"
"1266","41.5134","2.8908","13264.9","12802.5","114.8537","2.1735","99.6950","13191.4"
"1271","41.5984","2.8964","13103.7","12796.8","115.1291","2.1693","99.6950","13254.7"
"1276","41.6834","2.9021","13007.9","12791","114.7518","2.1651","99.6950","13168"
"1281","41.7684","2.9077","12956.9","12782.6","114.2670","2.1608","99.6950","13057"
"1286","41.8534","2.9134","12920.2","12774.3","113.4965","2.1567","99.6950","12881.4"
"1291","41.9384","2.9190","12880.6","12765.9","113.4536","2.1525","99.6950","12871.7"
"1296","42.0234","2.9247","12839.3","12755.3","113.1362","2.1483","99.6950","12799.8"
"1301","42.1084","2.9303","12806.5","12744.7","113.4690","2.1442","99.6950","12875.2"
"1306","42.1934","2.9360","12783.6","12734","113.1586","2.1401","99.6950","12804.9"
"1311","42.2784","2.9416","12772.9","12728.3","112.9158","2.1360","99.6950","12750"
"1316","42.3634","2.9473","12766.3","12722.6","112.8985","2.1319","99.6950","12746.1"
"1321","42.4484","2.9529","12761","12716.8","113.3833","2.1278","99.6950","12855.8"
"1326","42.5334","2.9586","12754.7","12711.1","112.8975","2.1237","99.6950","12745.9"
"1331","42.6184","2.9642","12746.3","12705.4","112.4069","2.1197","99.6950","12635.3"
"1336","42.7034","2.9698","12735.8","12699.6","112.1870","2.1157","99.6950","12585.9"
"1341","42.7884","2.9755","12723.1","12692.3","112.3140","2.1117","99.6950","12614.4"
"1346","42.8734","2.9811","12711","12684.9","112.2945","2.1077","99.6950","12610"
"1351","42.9584","2.9867","12700.1","12677.5","112.6093","2.1037","99.6950","12680.9"
"1356","43.0434","2.9924","12698.6","12677.8","112.9415","2.0997","99.6950","12755.8"
"1361","43.1284","2.9980","12699.2","12678.1","112.7499","2.0958","99.6950","12712.5"
"1366","43.2134","3.0036","12702.6","12678.5","113.5242","2.0919","99.6950","12887.7"
"1371","43.2984","3.0092","12708.3","12676.5","113.7164","2.0880","99.6950","12931.4"
"1376","43.3834","3.0149","12720.9","12674.4","114.0615","2.0841","99.6950","13010"
"1381","43.4684","3.0205","12741.4","12672.4","114.4152","2.0802","99.6950","13090.8"
"1386","43.5534","3.0261","12764.3","12667.7","116.0511","2.0763","99.6950","13467.9"
"1391","43.6384","3.0317","12782","12663.1","117.0561","2.0725","99.6950","13702.1"
"1396","43.7234","3.0373","12780.7","12658.4","116.0658","2.0687","99.6950","13471.3"
"1401","43.8084","3.0429","12755.9","12651.1","114.8000","2.0648","99.6950","13179"
"1406","43.8934","3.0486","12721.1","12643.7","114.4803","2.0610","99.6950","13105.7"
"1411","43.9784","3.0542","12688","12636.4","112.8923","2.0572","99.6950","12744.7"
"1416","44.0634","3.0598","12661.9","12629","112.8143","2.0535","99.6950","12727.1"
"1421","44.1484","3.0654","12643","12621.7","113.0487","2.0497","99.6950","12780"
"1426","44.2334","3.0710","12629.1","12614.4","112.6733","2.0460","99.6950","12695.3"
"1431","44.3184","3.0766","12615.5","12604.3","112.7000","2.0423","99.6950","12701.3"
"1436","44.4034","3.0822","12603.4","12594.3","112.6305","2.0385","99.6950","12685.6"
"1441","44.4884","3.0878","12591.9","12584.2","112.0127","2.0348","99.6950","12546.8"
"1446","44.5734","3.0934","12578.1","12571.4","112.6139","2.0312","99.6950","12681.9"
"1451","44.6584","3.0990","12564.5","12558.5","112.6992","2.0275","99.6950","12701.1"
"1456","44.7434","3.1046","12551","12545.7","112.3061","2.0238","99.6950","12612.7"
"1461","44.8284","3.1102","12534.9","12530.1","112.3970","2.0202","99.6950","12633.1"
"1466","44.9134","3.1158","12518.9","12514.5","112.8303","2.0166","99.6950","12730.7"
"1471","44.9984","3.1214","12502.9","12498.9","112.8325","2.0130","99.6950","12731.2"
"1476","45.0834","3.1270","12484.6","12480.9","112.6161","2.0094","99.6950","12682.4"
"1481","45.1684","3.1325","12466.3","12462.9","112.8441","2.0058","99.6950","12733.8"
"1486","45.2534","3.1381","12448.1","12444.9","111.5168","2.0022","99.6950","12436"
"1491","45.3384","3.1437","12450.9","12447.9","111.6986","1.9986","99.6950","12476.6"
"1496","45.4234","3.1493","12453.5","12450.8","112.2799","1.9951","99.6950","12606.8"
"1501","45.5084","3.1549","12456.3","12453.8","112.3774","1.9916","99.6950","12628.7"
"1506","45.5934","3.1605","12457.5","12454.4","112.1910","1.9881","99.6950","12586.8"
"1511","45.6784","3.1660","12458.5","12455.1","111.7939","1.9846","99.6950","12497.9"
"1516","45.7634","3.1716","12458.2","12455.7","111.9270","1.9811","99.6950","12527.7"
"1521","45.8484","3.1772","12456.3","12453.7","111.6338","1.9776","99.6950","12462.1"
"1526","45.9334","3.1828","12453.9","12451.8","111.0616","1.9741","99.6950","12334.7"
"1531","46.0184","3.1883","12452","12449.9","112.1089","1.9707","99.6950","12568.4"
"1536","46.1034","3.1939","12447.7","12445.6","112.2961","1.9673","99.6950","12610.4"
"1541","46.1884","3.1995","12443.5","12441.3","111.7893","1.9638","99.6950","12496.8"
"1546","46.2734","3.2050","12439.3","12437.1","111.5068","1.9604","99.6950","12433.8"
"1551","46.3584","3.2106","12435.1","12432.8","111.5468","1.9570","99.6950","12442.7"
"1556","46.4434","3.2161","12431","12428.5","111.9583","1.9536","99.6950","12534.7"
"1561","46.5284","3.2217","12426.8","12424.3","111.6098","1.9503","99.6950","12456.8"
"1566","46.6134","3.2273","12420.4","12417.7","110.9309","1.9469","99.6950","12305.7"
"1571","46.6984","3.2328","12413.9","12411.1","111.8440","1.9436","99.6950","12509.1"
"1576","46.7834","3.2384","12407.4","12404.5","111.4523","1.9402","99.6950","12421.6"
"1581","46.8684","3.2439","12398.9","12395.8","112.0084","1.9369","99.6950","12545.9"
"1586","46.9534","3.2495","12390.3","12387.1","112.3170","1.9336","99.6950","12615.1"
"1591","47.0384","3.2550","12381.8","12378.5","111.7060","1.9303","99.6950","12478.2"
"1596","47.1234","3.2606","12385.2","12381.7","111.8777","1.9270","99.6950","12516.6"
"1601","47.2084","3.2661","12388.6","12385","111.8872","1.9237","99.6950","12518.8"
"1606","47.2934","3.2717","12392.1","12388.2","112.1881","1.9205","99.6950","12586.2"
"1611","47.3784","3.2772","12394","12389.9","111.8847","1.9172","99.6950","12518.2"
"1616","47.4634","3.2827","12396","12391.6","111.4322","1.9140","99.6950","12417.1"
"1621","47.5484","3.2883","12398","12393.3","112.3256","1.9108","99.6950","12617"
"1626","47.6334","3.2938","12400","12395","112.6547","1.9076","99.6950","12691.1"
"1631","47.7184","3.2994","12402.1","12396.7","111.4606","1.9044","99.6950","12423.5"
"1636","47.8034","3.3049","12404.3","12398.4","111.7384","1.9012","99.6950","12485.5"
"1641","47.8884","3.3104","12405.1","12398.5","111.4187","1.8980","99.6950","12414.1"
"1646","47.9734","3.3159","12406.3","12398.6","111.8899","1.8948","99.6950","12519.4"
"1651","48.0584","3.3215","12408.5","12398.7","111.5670","1.8917","99.6950","12447.2"
"1656","48.1434","3.3270","12419.2","12406.1","111.5116","1.8885","99.6950","12434.8"
"1661","48.2284","3.3325","12430.9","12413.4","111.0819","1.8854","99.6950","12339.2"
"1666","48.3134","3.3380","12441.7","12420.8","111.4909","1.8823","99.6950","12430.2"
"1671","48.3984","3.3436","12448.6","12427.2","111.5832","1.8792","99.6950","12450.8"
"1676","48.4834","3.3491","12452.9","12433.6","112.4461","1.8761","99.6950","12644.1"
"1681","48.5684","3.3546","12456.8","12440.1","112.6642","1.8730","99.6950","12693.2"
"1686","48.6534","3.3601","12459.9","12444.6","111.3858","1.8699","99.6950","12406.8"
"1691","48.7384","3.3656","12464.4","12449.1","111.7451","1.8669","99.6950","12487"
"1696","48.8234","3.3711","12470","12453.5","111.6601","1.8638","99.6950","12468"
"1701","48.9084","3.3766","12476.4","12458","111.6023","1.8608","99.6950","12455.1"
"1706","48.9934","3.3821","12483.4","12462.5","111.2776","1.8578","99.6950","12382.7"
"1711","49.0784","3.3876","12491.2","12467","112.1091","1.8547","99.6950","12568.5"
"1716","49.1634","3.3932","12497.9","12469.5","111.7998","1.8517","99.6950","12499.2"
"1721","49.2484","3.3987","12506","12472","111.3412","1.8487","99.6950","12396.9"
"1726","49.3334","3.4042","12516.2","12474.6","111.8928","1.8457","99.6950","12520"
"1731","49.4184","3.4097","12536.1","12482.9","112.1656","1.8428","99.6950","12581.1"
"1736","49.5034","3.4151","12564","12491.2","111.9261","1.8398","99.6950","12527.5"
"1741","49.5884","3.4206","12608.6","12499.5","112.6547","1.8368","99.6950","12691.1"
"1746","49.6734","3.4261","12682.1","12505.6","113.3438","1.8339","99.6950","12846.8"
"1751","49.7584","3.4316","12803.5","12511.7","113.4112","1.8310","99.6950","12862.1"
"1756","49.8434","3.4371","12980.5","12517.8","113.6941","1.8280","99.6950","12926.3"
"1761","49.9284","3.4426","13188.5","12521.5","114.3885","1.8251","99.6950","13084.7"
"1766","50.0134","3.4481","13353.8","12525.1","114.6621","1.8222","99.6950","13147.4"
"1771","50.0984","3.4536","13382.2","12528.7","115.5180","1.8193","99.6950","13344.4"
"1776","50.1834","3.4590","13265.4","12529.8","115.0236","1.8165","99.6950","13230.4"
"1781","50.2684","3.4645","13074.8","12530.9","114.9130","1.8136","99.6950","13205"
"1786","50.3534","3.4700","12890.6","12532","113.8134","1.8107","99.6950","12953.5"
"1791","50.4384","3.4755","12754.9","12533.1","113.2389","1.8079","99.6950","12823.1"
"1796","50.5234","3.4809","12670.7","12534.1","113.0296","1.8050","99.6950","12775.7"
"1801","50.6084","3.4864","12624","12535.2","113.1818","1.8022","99.6950","12810.1"
"1806","50.6934","3.4919","12597","12533.8","113.0229","1.7994","99.6950","12774.2"
"1811","50.7784","3.4974","12582.1","12532.3","113.6180","1.7966","99.6950","12909.1"
"1816","50.8634","3.5028","12572","12530.8","112.1832","1.7938","99.6950","12585.1"
"1821","50.9484","3.5083","12562.5","12526.7","112.6317","1.7910","99.6950","12685.9"
"1826","51.0334","3.5137","12554.3","12522.6","112.2780","1.7882","99.6950","12606.4"
"1831","51.1184","3.5192","12547.3","12518.5","112.3613","1.7854","99.6950","12625.1"
"1836","51.2034","3.5247","12538.7","12511.7","111.9497","1.7826","99.6950","12532.7"
"1841","51.2884","3.5301","12530.9","12505","112.6055","1.7799","99.6950","12680"
"1846","51.3734","3.5356","12524.1","12498.2","112.7237","1.7771","99.6950","12706.6"
"1851","51.4584","3.5410","12515.9","12489.2","111.9539","1.7744","99.6950","12533.7"
"1856","51.5434","3.5465","12509.4","12480.1","111.4800","1.7717","99.6950","12427.8"
"1861","51.6284","3.5519","12505.5","12471","111.2630","1.7690","99.6950","12379.5"
"1866","51.7134","3.5574","12512.3","12468.6","112.0110","1.7662","99.6950","12546.5"
"1871","51.7984","3.5628","12525.1","12466.1","111.5728","1.7635","99.6950","12448.5"
"1876","51.8834","3.5682","12545.5","12463.6","111.8177","1.7609","99.6950","12503.2"
"1881","51.9684","3.5737","12571.5","12458.9","111.8754","1.7582","99.6950","12516.1"
"1886","52.0534","3.5791","12602.7","12454.3","112.0462","1.7555","99.6950","12554.4"
"1891","52.1384","3.5846","12631.5","12449.6","112.3965","1.7528","99.6950","12633"
"1896","52.2234","3.5900","12644.2","12443","112.2963","1.7502","99.6950","12610.5"
"1901","52.3084","3.5954","12634.3","12436.4","112.0794","1.7475","99.6950","12561.8"
"1906","52.3934","3.6009","12604.1","12429.7","111.8155","1.7449","99.6950","12502.7"
"1911","52.4784","3.6063","12561.1","12421.1","111.1081","1.7423","99.6950","12345"
"1916","52.5634","3.6117","12517.4","12412.5","113.1842","1.7397","99.6950","12810.7"
"1921","52.6484","3.6171","12479.4","12404","112.2536","1.7371","99.6950","12600.9"
"1926","52.7334","3.6226","12449.1","12395.4","111.0478","1.7345","99.6950","12331.6"
"1931","52.8184","3.6280","12426","12386.8","111.6399","1.7319","99.6950","12463.5"
"1936","52.9034","3.6334","12408.3","12378.2","111.7010","1.7293","99.6950","12477.1"
"1941","52.9884","3.6388","12392.3","12367.7","111.4381","1.7267","99.6950","12418.5"
"1946","53.0734","3.6442","12379","12357.1","111.8227","1.7241","99.6950","12504.3"
"1951","53.1584","3.6496","12366.6","12346.6","111.9545","1.7216","99.6950","12533.8"
"1956","53.2434","3.6550","12353.3","12334.1","111.7666","1.7190","99.6950","12491.8"
"1961","53.3284","3.6605","12340.2","12321.7","111.0819","1.7165","99.6950","12339.2"
"1966","53.4134","3.6659","12327.6","12309.2","111.4204","1.7140","99.6950","12414.5"
"1971","53.4984","3.6713","12324.1","12305.6","111.0452","1.7114","99.6950","12331"
"1976","53.5834","3.6767","12320.9","12301.9","111.8845","1.7089","99.6950","12518.2"
"1981","53.6684","3.6821","12318","12298.3","111.3023","1.7064","99.6950","12388.2"
"1986","53.7534","3.6875","12315.5","12294.6","111.8222","1.7039","99.6950","12504.2"
"1991","53.8384","3.6929","12313.5","12290.9","111.1739","1.7014","99.6950","12359.6"
"1996","53.9234","3.6983","12312.2","12287.3","110.9656","1.6990","99.6950","12313.4"
"2001","54.0084","3.7036","12332.7","12304.4","111.5616","1.6965","99.6950","12446"
"2006","54.0934","3.7090","12355","12321.5","111.3982","1.6940","99.6950","12409.6"
"2011","54.1784","3.7144","12379.5","12338.5","111.6880","1.6916","99.6950","12474.2"
"2016","54.2634","3.7198","12404.7","12353.3","111.4383","1.6891","99.6950","12418.5"
"2021","54.3484","3.7252","12433.2","12368.2","111.9348","1.6867","99.6950","12529.4"
"2026","54.4334","3.7306","12464.3","12383","111.4114","1.6842","99.6950","12412.5"
"2031","54.5184","3.7360","12493.9","12395.4","112.0168","1.6818","99.6950","12547.8"
"2036","54.6034","3.7413","12521.2","12407.8","111.6111","1.6794","99.6950","12457"
"2041","54.6884","3.7467","12547.4","12420.2","111.6964","1.6770","99.6950","12476.1"
"2046","54.7734","3.7521","12577","12430","112.6895","1.6746","99.6950","12698.9"
"2051","54.8584","3.7575","12627","12439.8","113.3275","1.6722","99.6950","12843.1"
"2056","54.9434","3.7628","12718.8","12449.7","112.5750","1.6698","99.6950","12673.1"
"2061","55.0284","3.7682","12870.2","12456.8","114.0349","1.6674","99.6950","13004"
"2066","55.1134","3.7736","13086.2","12464","114.2044","1.6651","99.6950","13042.6"
"2071","55.1984","3.7789","13324","12471.2","114.3989","1.6627","99.6950","13087.1"
"2076","55.2834","3.7843","13476.7","12475.7","114.5673","1.6603","99.6950","13125.7"
"2081","55.3684","3.7896","13462.8","12480.3","115.0867","1.6580","99.6950","13244.9"
"2086","55.4534","3.7950","13307.5","12484.8","115.0294","1.6557","99.6950","13231.8"
"2091","55.5384","3.8003","13089.3","12489.4","114.3326","1.6533","99.6950","13071.9"
"2096","55.6234","3.8057","12890.6","12493.9","114.4123","1.6510","99.6950","13090.2"
"2101","55.7084","3.8110","12751.3","12498.5","113.7820","1.6487","99.6950","12946.3"
"2106","55.7934","3.8164","12669","12500.3","113.0990","1.6464","99.6950","12791.4"
"2111","55.8784","3.8217","12631.4","12502.2","112.8365","1.6441","99.6950","12732.1"
"2116","55.9634","3.8271","12623.2","12504.1","113.0652","1.6418","99.6950","12783.7"
"2121","56.0484","3.8324","12628.6","12503.4","112.5341","1.6395","99.6950","12663.9"
"2126","56.1334","3.8378","12637.6","12502.7","112.7390","1.6372","99.6950","12710.1"
"2131","56.2184","3.8431","12636.7","12501.9","111.8963","1.6349","99.6950","12520.8"
"2136","56.3034","3.8484","12619.9","12498.6","111.3828","1.6327","99.6950","12406.1"
"2141","56.3884","3.8538","12594.6","12495.3","112.1360","1.6304","99.6950","12574.5"
"2146","56.4734","3.8591","12568.5","12492","111.9602","1.6281","99.6950","12535.1"
"2151","56.5584","3.8644","12545","12486.3","111.7044","1.6259","99.6950","12477.9"
"2156","56.6434","3.8698","12528","12480.6","111.3840","1.6237","99.6950","12406.4"
"2161","56.7284","3.8751","12516.5","12474.9","112.0209","1.6214","99.6950","12548.7"
"2166","56.8134","3.8804","12506.8","12467","111.5553","1.6192","99.6950","12444.6"
"2171","56.8984","3.8857","12500.4","12459","112.2512","1.6170","99.6950","12600.3"
"2176","56.9834","3.8911","12497.7","12451.1","111.1813","1.6148","99.6950","12361.3"
"2181","57.0684","3.8964","12506.6","12448.3","111.6984","1.6126","99.6950","12476.5"
"2186","57.1534","3.9017","12527.5","12445.5","112.2790","1.6104","99.6950","12606.6"
"2191","57.2384","3.9070","12568.5","12442.7","112.0542","1.6082","99.6950","12556.1"
"2196","57.3234","3.9123","12634.7","12437.8","111.2283","1.6060","99.6950","12371.7"
"2201","57.4084","3.9176","12726.3","12432.8","112.0298","1.6038","99.6950","12550.7"
"2206","57.4934","3.9229","12820.3","12427.8","112.2760","1.6017","99.6950","12605.9"
"2211","57.5784","3.9282","12866.7","12420.6","112.1629","1.5995","99.6950","12580.5"
"2216","57.6634","3.9335","12840.9","12413.4","112.1705","1.5973","99.6950","12582.2"
"2221","57.7484","3.9388","12761.5","12406.2","112.4341","1.5952","99.6950","12641.4"
"2226","57.8334","3.9441","12659.4","12396.7","112.2652","1.5931","99.6950","12603.5"
"2231","57.9184","3.9494","12567.9","12387.2","112.1924","1.5909","99.6950","12587.1"
"2236","58.0034","3.9547","12497.5","12377.8","112.3545","1.5888","99.6950","12623.5"
"2241","58.0884","3.9600","12447.9","12368.3","112.1756","1.5867","99.6950","12583.4"
"2246","58.1734","3.9653","12413.2","12358.8","111.8808","1.5845","99.6950","12517.3"
"2251","58.2584","3.9706","12388.5","12349.3","111.3729","1.5824","99.6950","12403.9"
"2256","58.3434","3.9759","12367.9","12337.6","110.9599","1.5803","99.6950","12312.1"
"2261","58.4284","3.9811","12351","12325.8","111.5662","1.5782","99.6950","12447"
"2266","58.5134","3.9864","12335.8","12314.1","111.7091","1.5761","99.6950","12478.9"
"2271","58.5984","3.9917","12319.5","12300.1","111.3611","1.5741","99.6950","12401.3"
"2276","58.6834","3.9970","12303.9","12286.1","110.7611","1.5720","99.6950","12268"
"2281","58.7684","4.0022","12288.8","12272.1","111.8852","1.5699","99.6950","12518.3"
"2286","58.8534","4.0075","12272","12255.8","111.5511","1.5678","99.6950","12443.7"
"2291","58.9384","4.0128","12255.7","12239.6","110.8310","1.5658","99.6950","12283.5"
"2296","59.0234","4.0181","12240","12223.4","110.5531","1.5637","99.6950","12222"
"2301","59.1084","4.0233","12246.1","12227.8","111.5635","1.5617","99.6950","12446.4"
"2306","59.1934","4.0286","12254.1","12232.3","111.4415","1.5597","99.6950","12419.2"
"2311","59.2784","4.0338","12265.7","12236.7","111.3210","1.5576","99.6950","12392.4"
"2316","59.3634","4.0391","12281","12239","111.0035","1.5556","99.6950","12321.8"
"2321","59.4484","4.0444","12304.1","12241.4","111.0341","1.5536","99.6950","12328.6"
"2326","59.5334","4.0496","12333.4","12243.7","111.6187","1.5516","99.6950","12458.7"
"2331","59.6184","4.0549","12362.4","12246","111.3442","1.5495","99.6950","12397.5"
"2336","59.7034","4.0601","12379.2","12248.4","111.6851","1.5475","99.6950","12473.6"
"2341","59.7884","4.0654","12378.3","12250.7","111.2674","1.5455","99.6950","12380.4"
"2346","59.8734","4.0706","12360.6","12250.9","111.3071","1.5436","99.6950","12389.3"
"2351","59.9584","4.0758","12336.4","12251.2","111.7377","1.5416","99.6950","12485.3"
"2356","60.0434","4.0811","12313.6","12251.4","111.4849","1.5396","99.6950","12428.9"
"2361","60.1284","4.0863","12292.8","12249","110.0187","1.5376","99.6950","12104.1"
"2366","60.2134","4.0916","12277.5","12246.6","112.3549","1.5356","99.6950","12623.6"
"2371","60.2984","4.0968","12266.5","12244.2","111.3694","1.5337","99.6950","12403.1"
"2376","60.3834","4.1020","12258.9","12242.1","111.0360","1.5317","99.6950","12329"
"2381","60.4684","4.1072","12253.5","12240.1","111.2775","1.5298","99.6950","12382.7"
"2386","60.5534","4.1125","12249.3","12238","110.7343","1.5278","99.6950","12262.1"
"2391","60.6384","4.1177","12243.8","12233.8","110.8792","1.5259","99.6950","12294.2"
"2396","60.7234","4.1229","12238.8","12229.6","110.9093","1.5240","99.6950","12300.9"
"2401","60.8084","4.1281","12234.2","12225.4","111.2429","1.5220","99.6950","12375"
"2406","60.8934","4.1334","12229.8","12221.3","110.4998","1.5201","99.6950","12210.2"
"2411","60.9784","4.1386","12225.7","12217.1","111.4632","1.5182","99.6950","12424"
"2416","61.0634","4.1438","12222.1","12212.9","110.6952","1.5163","99.6950","12253.4"
"2421","61.1484","4.1490","12216.8","12206.6","110.7772","1.5144","99.6950","12271.6"
"2426","61.2334","4.1542","12212.3","12200.3","110.7515","1.5125","99.6950","12265.9"
"2431","61.3184","4.1594","12208.8","12194","110.4531","1.5106","99.6950","12199.9"
"2436","61.4034","4.1646","12227","12208.1","110.6876","1.5087","99.6950","12251.7"
"2441","61.4884","4.1698","12246","12222.2","111.8046","1.5068","99.6950","12500.3"
"2446","61.5734","4.1750","12265.4","12236.4","110.7052","1.5050","99.6950","12255.6"
"2451","61.6584","4.1802","12281.8","12248.8","110.5944","1.5031","99.6950","12231.1"
"2456","61.7434","4.1854","12295.7","12261.2","110.5882","1.5012","99.6950","12229.8"
"2461","61.8284","4.1906","12306.9","12273.6","111.0230","1.4994","99.6950","12326.1"
"2466","61.9134","4.1958","12314.4","12284.3","111.6351","1.4975","99.6950","12462.4"
"2471","61.9984","4.2010","12321.4","12295","110.8483","1.4957","99.6950","12287.3"
"2476","62.0834","4.2062","12328.7","12305.7","110.5314","1.4938","99.6950","12217.2"
"2481","62.1684","4.2113","12335.7","12314.4","110.8626","1.4920","99.6950","12290.5"
"2486","62.2534","4.2165","12344.5","12323","110.9581","1.4901","99.6950","12311.7"
"2491","62.3384","4.2217","12355.8","12331.7","110.8365","1.4883","99.6950","12284.7"
"2496","62.4234","4.2269","12368.7","12338.1","110.6047","1.4865","99.6950","12233.4"
"2501","62.5084","4.2320","12388.3","12344.4","110.9045","1.4847","99.6950","12299.8"
"2506","62.5934","4.2372","12418.7","12350.7","111.1286","1.4829","99.6950","12349.6"
"2511","62.6784","4.2424","12461.2","12354.7","111.1174","1.4811","99.6950","12347.1"
"2516","62.7634","4.2476","12516.6","12358.6","111.3912","1.4792","99.6950","12408"
"2521","62.8484","4.2527","12572.4","12362.5","111.6529","1.4775","99.6950","12466.4"
"2526","62.9334","4.2579","12603.6","12366.4","111.7711","1.4757","99.6950","12492.8"
"2531","63.0184","4.2630","12598.2","12370.4","112.2879","1.4739","99.6950","12608.6"
"2536","63.1034","4.2682","12566.4","12374.3","112.3047","1.4721","99.6950","12612.3"
"2541","63.1884","4.2733","12520.4","12375.8","111.7650","1.4703","99.6950","12491.4"
"2546","63.2734","4.2785","12479.3","12377.3","111.1833","1.4685","99.6950","12361.7"
"2551","63.3584","4.2837","12452.3","12378.8","111.6874","1.4668","99.6950","12474.1"
"2556","63.4434","4.2888","12437.9","12377.8","111.9506","1.4650","99.6950","12532.9"
"2561","63.5284","4.2939","12438.4","12376.8","111.4899","1.4633","99.6950","12430"
"2566","63.6134","4.2991","12455","12375.9","112.4575","1.4615","99.6950","12646.7"
"2571","63.6984","4.3042","12488.5","12372.6","111.3331","1.4598","99.6950","12395.1"
"2576","63.7834","4.3094","12541.9","12369.3","112.3695","1.4580","99.6950","12626.9"
"2581","63.8684","4.3145","12606.4","12366","110.7315","1.4563","99.6950","12261.5"
"2586","63.9534","4.3196","12653.4","12360.9","111.5202","1.4546","99.6950","12436.8"
"2591","64.0384","4.3248","12656","12355.9","111.8241","1.4528","99.6950","12504.6"
"2596","64.1234","4.3299","12616.9","12350.8","111.8219","1.4511","99.6950","12504.1"
"2601","64.2084","4.3350","12550.2","12343.2","111.5700","1.4494","99.6950","12447.9"
"2606","64.2934","4.3401","12479","12335.6","111.3934","1.4477","99.6950","12408.5"
"2611","64.3784","4.3453","12420.5","12328","111.6632","1.4460","99.6950","12468.7"
"2616","64.4634","4.3504","12376.8","12318.2","111.4898","1.4443","99.6950","12430"
"2621","64.5484","4.3555","12347.1","12308.5","111.3330","1.4426","99.6950","12395"
"2626","64.6334","4.3606","12326.2","12298.8","111.2194","1.4409","99.6950","12369.7"
"2631","64.7184","4.3657","12310.3","12289.1","110.6069","1.4392","99.6950","12233.9"
"2636","64.8034","4.3708","12296.9","12279.4","110.8313","1.4375","99.6950","12283.6"
"2641","64.8884","4.3759","12284.7","12269.7","111.4433","1.4358","99.6950","12419.6"
"2646","64.9734","4.3811","12271.2","12257.9","111.0902","1.4342","99.6950","12341"
"2651","65.0584","4.3862","12258.2","12246.1","110.7478","1.4325","99.6950","12265.1"
"2656","65.1434","4.3913","12245.5","12234.3","110.4685","1.4308","99.6950","12203.3"
"2661","65.2284","4.3964","12238.6","12227.9","111.1183","1.4292","99.6950","12347.3"
"2666","65.3134","4.4014","12232","12221.5","111.4602","1.4275","99.6950","12423.4"
"2671","65.3984","4.4065","12225.7","12215.2","111.0276","1.4259","99.6950","12327.1"
"2676","65.4834","4.4116","12217.7","12206.7","111.5233","1.4242","99.6950","12437.4"
"2681","65.5684","4.4167","12210.2","12198.2","110.8948","1.4226","99.6950","12297.7"
"2686","65.6534","4.4218","12203.5","12189.8","111.0311","1.4210","99.6950","12327.9"
"2691","65.7384","4.4269","12198.2","12181.3","110.9155","1.4193","99.6950","12302.2"
"2696","65.8234","4.4320","12194.9","12172.9","110.3733","1.4177","99.6950","12182.3"
"2701","65.9084","4.4370","12194.4","12164.4","110.3441","1.4161","99.6950","12175.8"
"2706","65.9934","4.4421","12207.7","12166.7","110.5194","1.4145","99.6950","12214.5"
"2711","66.0784","4.4472","12224","12169","111.0029","1.4128","99.6950","12321.6"
"2716","66.1634","4.4523","12241.4","12171.3","110.6545","1.4112","99.6950","12244.4"
"2721","66.2484","4.4573","12256.8","12173.5","111.0401","1.4096","99.6950","12329.9"
"2726","66.3334","4.4624","12267.6","12175.8","111.1581","1.4080","99.6950","12356.1"
"2731","66.4184","4.4675","12274.1","12178.1","110.2413","1.4064","99.6950","12153.1"
"2736","66.5034","4.4725","12277.3","12179.5","111.1180","1.4048","99.6950","12347.2"
"2741","66.5884","4.4776","12279","12180.9","110.7435","1.4033","99.6950","12264.1"
"2746","66.6734","4.4826","12279.1","12182.2","110.5513","1.4017","99.6950","12221.6"
"2751","66.7584","4.4877","12272.7","12181.3","110.7917","1.4001","99.6950","12274.8"
"2756","66.8434","4.4927","12260.2","12180.4","110.7583","1.3985","99.6950","12267.4"
"2761","66.9284","4.4978","12244","12179.5","110.1757","1.3969","99.6950","12138.7"
"2766","67.0134","4.5028","12224.2","12175.9","110.8258","1.3954","99.6950","12282.4"
"2771","67.0984","4.5079","12206.2","12172.4","110.5505","1.3938","99.6950","12221.4"
"2776","67.1834","4.5129","12191.8","12168.8","110.0269","1.3923","99.6950","12105.9"
"2781","67.2684","4.5180","12179.1","12163.2","111.1440","1.3907","99.6950","12353"
"2786","67.3534","4.5230","12169.1","12157.6","110.9553","1.3892","99.6950","12311.1"
"2791","67.4384","4.5280","12160.7","12152","110.1922","1.3876","99.6950","12142.3"
"2796","67.5234","4.5331","12151.3","12144.3","110.7124","1.3861","99.6950","12257.2"
"2801","67.6084","4.5381","12142.5","12136.6","110.4012","1.3845","99.6950","12188.4"
"2806","67.6934","4.5431","12134","12128.9","110.7549","1.3830","99.6950","12266.7"
"2811","67.7784","4.5481","12125.7","12121.2","110.3965","1.3815","99.6950","12187.4"
"2816","67.8634","4.5532","12117.5","12113.6","110.5753","1.3800","99.6950","12226.9"
"2821","67.9484","4.5582","12109.4","12105.9","110.7070","1.3784","99.6950","12256"
"2826","68.0334","4.5632","12099.3","12096.1","110.8718","1.3769","99.6950","12292.6"
"2831","68.1184","4.5682","12089.3","12086.4","110.9529","1.3754","99.6950","12310.5"
"2836","68.2034","4.5732","12079.3","12076.6","108.9715","1.3739","99.6950","11874.8"
"2841","68.2884","4.5782","12068.9","12066.5","109.6796","1.3724","99.6950","12029.6"
"2846","68.3734","4.5832","12058.6","12056.3","110.1887","1.3709","99.6950","12141.5"
"2851","68.4584","4.5882","12048.3","12046.1","109.5638","1.3694","99.6950","12004.2"
"2856","68.5434","4.5932","12057","12055.2","109.8935","1.3679","99.6950","12076.6"
"2861","68.6284","4.5982","12066","12064.3","110.6234","1.3664","99.6950","12237.5"
"2866","68.7134","4.6032","12074.9","12073.4","110.5666","1.3649","99.6950","12225"
"2871","68.7984","4.6082","12082","12080.5","110.5912","1.3635","99.6950","12230.4"
"2876","68.8834","4.6132","12089.1","12087.6","110.0188","1.3620","99.6950","12104.1"
"2881","68.9684","4.6182","12096.3","12094.7","110.5616","1.3605","99.6950","12223.9"
"2886","69.0534","4.6232","12103.6","12101.8","110.8740","1.3591","99.6950","12293"
"2891","69.1384","4.6282","12111.1","12108.8","109.7542","1.3576","99.6950","12046"
"2896","69.2234","4.6332","12118.8","12115.9","110.8008","1.3561","99.6950","12276.8"
"2901","69.3084","4.6381","12124.6","12121","110.5161","1.3547","99.6950","12213.8"
"2906","69.3934","4.6431","12130.5","12126","110.6248","1.3532","99.6950","12237.8"
"2911","69.4784","4.6481","12136.2","12131","109.9038","1.3518","99.6950","12078.8"
"2916","69.5634","4.6531","12138.1","12132.7","110.5036","1.3503","99.6950","12211"
"2921","69.6484","4.6580","12139.4","12134.4","109.6493","1.3489","99.6950","12023"
"2926","69.7334","4.6630","12140.5","12136.1","109.7240","1.3475","99.6950","12039.4"
"2931","69.8184","4.6680","12141.3","12137.8","110.2366","1.3460","99.6950","12152.1"
"2936","69.9034","4.6729","12142.2","12139.4","110.4229","1.3446","99.6950","12193.2"
"2941","69.9884","4.6779","12142.8","12140.8","110.1867","1.3432","99.6950","12141.1"