File: herald_visualization/Delia_Scripts/VF4_1to1_KS6Lgraphite/fitted-VF4_1to1_KS6Lgraphite-100min_milled-Quinn_mixed-20-70deg_40min.csv
2Theta,Intensity
20.0254,3298.52
20.0594,3253.55
20.0934,3295.36
20.1274,3283.83
20.1614,3344.43
20.1954,3250.56
20.2294,3290.04
20.2634,3230.65
20.2974,3222.13
20.3314,3206.36
20.3654,3234.57
20.3994,3216.75
20.4334,3157.83
20.4674,3176.15
20.5014,3167.87
20.5354,3138.06
20.5694,3103.26
20.6034,3089.96
20.6374,3082.76
20.6714,3142.57
20.7054,3060.12
20.7394,3044.26
20.7734,2987.05
20.8074,3065.41
20.8414,3084.94
20.8754,2979.33
20.9094,2941.32
20.9434,2948.12
20.9774,2951.88
21.0114,2918.71
21.0454,3020.88
21.0794,2896.4
21.1134,2958.72
21.1474,2886.56
21.1814,2874.69
21.2154,2872.37
21.2494,2838.14
21.2834,2882.59
21.3174,2780.97
21.3514,2839.62
21.3854,2814.19
21.4194,2833.3
21.4534,2784.04
21.4874,2761.44
21.5214,2711.12
21.5554,2768.91
21.5894,2787.81
21.6234,2648.41
21.6574,2743.76
21.6914,2775
21.7254,2732.43
21.7594,2601.62
21.7934,2597.11
21.8274,2666.27
21.8614,2710.81
21.8954,2678.32
21.9294,2710.24
21.9634,2610.04
21.9974,2681.73
22.0314,2509.57
22.0654,2546.62
22.0994,2554.75
22.1334,2624.04
22.1674,2659.47
22.2014,2528.14
22.2354,2544.12
22.2694,2540.4
22.3034,2511.97
22.3374,2468
22.3714,2548.69
22.4054,2488.33
22.4394,2562.59
22.4734,2473.8
22.5074,2501.99
22.5414,2502.59
22.5754,2513.09
22.6094,2524.78
22.6434,2511.77
22.6774,2491.21
22.7114,2547.83
22.7454,2531.91
22.7794,2546.87
22.8134,2496.06
22.8474,2512.6
22.8814,2625.03
22.9154,2603.64
22.9494,2644.91
22.9834,2679.16
23.0174,2643.43
23.0514,2772.22
23.0854,2767.46
23.1194,2786.34
23.1534,2875.1
23.1874,2937.56
23.2214,3108.92
23.2554,3099.1
23.2894,3178.54
23.3234,3344.48
23.3574,3464.17
23.3914,3700.94
23.4254,3834.7
23.4594,4112.79
23.4934,4275.76
23.5274,4720.16
23.5614,5088.76
23.5954,5449.13
23.6294,5877.69
23.6634,6251.91
23.6974,6648.25
23.7314,7162.84
23.7654,7371.65
23.7994,7548.77
23.8334,7794.78
23.8674,7578.74
23.9014,7554.3
23.9354,7018.9
23.9694,6515.31
24.0034,6243.4
24.0374,5814.16
24.0714,5493.36
24.1054,5197.77
24.1394,4738.37
24.1734,4543.76
24.2074,4033.34
24.2414,3875.87
24.2754,3734.82
24.3094,3446.44
24.3434,3304.77
24.3774,3125.76
24.4114,2915.85
24.4454,2876.51
24.4794,2744.74
24.5134,2619.18
24.5474,2576.84
24.5814,2522.1
24.6154,2474.44
24.6494,2336.28
24.6834,2304.44
24.7174,2271.93
24.7514,2292.02
24.7854,2188.64
24.8194,2202.15
24.8534,2150.85
24.8874,2119.29
24.9214,2114.7
24.9554,2065.06
24.9894,2022.69
25.0234,1941.45
25.0574,1978.76
25.0914,2036.03
25.1254,1932.58
25.1594,1901.36
25.1934,1918.08
25.2274,1934.65
25.2614,1890.65
25.2954,1852.96
25.3294,1840.62
25.3634,1870.62
25.3974,1831.53
25.4314,1827.35
25.4654,1827.61
25.4994,1875.65
25.5334,1816.22
25.5674,1800.84
25.6014,1802
25.6354,1835.98
25.6694,1774.32
25.7034,1759.03
25.7374,1774.9
25.7714,1775.86
25.8054,1656.17
25.8394,1778.38
25.8734,1791.59
25.9074,1644.44
25.9414,1761.89
25.9754,1760.71
26.0094,1713.41
26.0434,1736.19
26.0774,1759.84
26.1114,1637.06
26.1454,1635.65
26.1794,1730.35
26.2134,1707.6
26.2474,1669.68
26.2814,1686.11
26.3154,1725.62
26.3494,1676.89
26.3834,1656.5
26.4174,1673.11
26.4514,1676.27
26.4854,1582.72
26.5194,1627.56
26.5534,1657.87
26.5874,1587.52
26.6214,1612.14
26.6554,1596.58
26.6894,1636.85
26.7234,1552.23
26.7574,1544.44
26.7914,1618.06
26.8254,1590.35
26.8594,1521.9
26.8934,1615.85
26.9274,1576.2
26.9614,1540.27
26.9954,1618.15
27.0294,1519.02
27.0634,1549.87
27.0974,1584.87
27.1314,1569.58
27.1654,1575.24
27.1994,1572.35
27.2334,1578.9
27.2674,1533.5
27.3014,1518.63
27.3354,1472.53
27.3694,1551.04
27.4034,1541.86
27.4374,1556.18
27.4714,1530.64
27.5054,1511.08
27.5394,1513.08
27.5734,1515.67
27.6074,1502.95
27.6414,1479.27
27.6754,1452.95
27.7094,1517.44
27.7434,1449.24
27.7774,1484.33
27.8114,1480.96
27.8454,1494.33
27.8794,1530.95
27.9134,1428.38
27.9474,1415.24
27.9814,1425.33
28.0154,1349.96
28.0494,1440.52
28.0834,1339.03
28.1174,1416.93
28.1514,1395.15
28.1854,1412.56
28.2194,1411.67
28.2534,1429.54
28.2874,1363.28
28.3214,1394.49
28.3554,1360.17
28.3894,1398.77
28.4234,1368.4
28.4574,1371.41
28.4914,1343.36
28.5254,1413.86
28.5594,1333.44
28.5934,1361.03
28.6274,1309.81
28.6614,1370.01
28.6954,1365.52
28.7294,1334.97
28.7634,1367.04
28.7974,1339.93
28.8314,1282.3
28.8654,1370.92
28.8994,1324.39
28.9334,1296.43
28.9674,1302.21
29.0014,1329.8
29.0354,1293.34
29.0694,1270.08
29.1034,1313.88
29.1374,1308.46
29.1714,1299.19
29.2054,1326.33
29.2394,1289.56
29.2734,1271.32
29.3074,1291.49
29.3414,1260.74
29.3754,1236.28
29.4094,1233.84
29.4434,1232.96
29.4774,1223.66
29.5114,1234.06
29.5454,1285.86
29.5794,1259.18
29.6134,1322.47
29.6474,1246.24
29.6814,1192.39
29.7154,1272.37
29.7494,1226.4
29.7834,1177.63
29.8174,1170.4
29.8514,1166.28
29.8854,1197.5
29.9194,1294.73
29.9534,1194.95
29.9874,1225.6
30.0214,1195.06
30.0554,1185.28
30.0894,1186.51
30.1234,1149.13
30.1574,1167.1
30.1914,1172.69
30.2254,1182.04
30.2594,1184.8
30.2934,1199.12
30.3274,1128.04
30.3614,1182.33
30.3954,1138.8
30.4294,1179.62
30.4634,1144.01
30.4974,1111.38
30.5314,1151.02
30.5654,1146.68
30.5994,1152.7
30.6334,1139.24
30.6674,1128.83
30.7014,1107.15
30.7354,1115.96
30.7694,1109.6
30.8034,1087.86
30.8374,1074.08
30.8714,1051.18
30.9054,1095.97
30.9394,1101.44
30.9734,1092.74
31.0074,1121.28
31.0414,1165.08
31.0754,1086.93
31.1094,1126.74
31.1434,1103.61
31.1774,1079.92
31.2114,1063.25
31.2454,1069.69
31.2794,1057.82
31.3134,1075.9
31.3474,1080.48
31.3814,1090.09
31.4154,1048.71
31.4494,1060.84
31.4834,1045.92
31.5174,1016.42
31.5514,1026.31
31.5854,1019.06
31.6194,1042.99
31.6534,1064.26
31.6874,1045.79
31.7214,1047.3
31.7554,988.713
31.7894,1045.86
31.8234,1062.6
31.8574,1058.47
31.8914,1004.47
31.9254,1051.57
31.9594,1057.2
31.9934,1011.02
32.0274,1020.01
32.0614,1038.24
32.0954,1049.47
32.1294,1070.97
32.1634,1018.46
32.1974,989.284
32.2314,1092.73
32.2654,1051.6
32.2994,1058.14
32.3334,1032.42
32.3674,1047.04
32.4014,1036.01
32.4354,1099.87
32.4694,1057.04
32.5034,1078.76
32.5374,1064.14
32.5714,1084.61
32.6054,1047.16
32.6394,1121.38
32.6734,1108.44
32.7074,1068.55
32.7414,1126.23
32.7754,1164
32.8094,1154.75
32.8434,1188.97
32.8774,1161.47
32.9114,1185.27
32.9454,1219.14
32.9794,1200.71
33.0134,1260.09
33.0474,1270.06
33.0814,1320.66
33.1154,1297.38
33.1494,1383.47
33.1834,1431.53
33.2174,1418.91
33.2514,1388.86
33.2854,1478.21
33.3194,1498.73
33.3534,1486.7
33.3874,1514.03
33.4214,1472.4
33.4554,1470.67
33.4894,1434.9
33.5234,1398.41
33.5574,1423.15
33.5914,1335.62
33.6254,1307.77
33.6594,1253.06
33.6934,1299.73
33.7274,1284.34
33.7614,1219.14
33.7954,1215.83
33.8294,1196.72
33.8634,1198.93
33.8974,1132.66
33.9314,1150.05
33.9654,1126.8
33.9994,1140
34.0334,1158.59
34.0674,1126.92
34.1014,1090.74
34.1354,1074.39
34.1694,1064.65
34.2034,1058.59
34.2374,1089.38
34.2714,1048.71
34.3054,1097.37
34.3394,1074.86
34.3734,1083.78
34.4074,1071.24
34.4414,1064.85
34.4754,1041.63
34.5094,1130.89
34.5434,1079.53
34.5774,1027.07
34.6114,1044.84
34.6454,1027.55
34.6794,1117.38
34.7134,967.376
34.7474,1050.55
34.7814,994.957
34.8154,977.683
34.8494,978.751
34.8834,909.948
34.9174,971.269
34.9514,940.611
34.9854,967.148
35.0194,935.975
35.0534,932.837
35.0874,919.471
35.1214,914.556
35.1554,878.521
35.1894,910.983
35.2234,887.899
35.2574,862.494
35.2914,881.836
35.3254,882.164
35.3594,876.915
35.3934,846.549
35.4274,865.739
35.4614,800.696
35.4954,864.875
35.5294,825.979
35.5634,836.08
35.5974,827.374
35.6314,790.487
35.6654,828.984
35.6994,763.739
35.7334,757.764
35.7674,768.998
35.8014,771.255
35.8354,838.214
35.8694,747.681
35.9034,752.637
35.9374,790.433
35.9714,793.342
36.0054,742.072
36.0394,807.419
36.0734,824.874
36.1074,788.476
36.1414,790.745
36.1754,790.276
36.2094,773.085
36.2434,731.491
36.2774,762.168
36.3114,739.062
36.3454,741.98
36.3794,757.318
36.4134,780.804
36.4474,731.627
36.4814,737.71
36.5154,718.905
36.5494,780.7
36.5834,752.012
36.6174,726.952
36.6514,734.982
36.6854,786.822
36.7194,754.807
36.7534,755.945
36.7874,752.766
36.8214,756.133
36.8554,747.68
36.8894,741.253
36.9234,711.151
36.9574,761.258
36.9914,727.603
37.0254,736.41
37.0594,728.597
37.0934,722.464
37.1274,766.68
37.1614,729.669
37.1954,741.125
37.2294,737.018
37.2634,726.692
37.2974,713.143
37.3314,708.877
37.3654,713.607
37.3994,699.35
37.4334,697.231
37.4674,690.835
37.5014,713.763
37.5354,730.825
37.5694,704.108
37.6034,703.941
37.6374,684.424
37.6714,702.311
37.7054,746.964
37.7394,688.576
37.7734,765.992
37.8074,685.511
37.8414,716.242
37.8754,689.047
37.9094,690.36
37.9434,728.684
37.9774,732.475
38.0114,728.011
38.0454,744.122
38.0794,739.945
38.1134,719.771
38.1474,682.026
38.1814,712.168
38.2154,705.757
38.2494,697.139
38.2834,727.042
38.3174,664.528
38.3514,690.932
38.3854,676.771
38.4194,696.128
38.4534,739.405
38.4874,712.907
38.5214,681.066
38.5554,672.547
38.5894,672.2
38.6234,690.564
38.6574,720.604
38.6914,664.048
38.7254,717.275
38.7594,693.886
38.7934,707.275
38.8274,698.516
38.8614,733.508
38.8954,692.805
38.9294,742.44
38.9634,682.291
38.9974,701.504
39.0314,726.669
39.0654,730.519
39.0994,730.68
39.1334,714.88
39.1674,724.528
39.2014,754.768
39.2354,753.41
39.2694,773.194
39.3034,752.798
39.3374,738.742
39.3714,721.794
39.4054,796.283
39.4394,763.879
39.4734,769.29
39.5074,798.054
39.5414,820.48
39.5754,819.887
39.6094,842.106
39.6434,818.109
39.6774,881.029
39.7114,836.269
39.7454,877.424
39.7794,938.629
39.8134,997.872
39.8474,972.326
39.8814,1003.59
39.9154,1004.64
39.9494,1104.53
39.9834,1128.22
40.0174,1064.5
40.0514,1236.19
40.0854,1182.96
40.1194,1252.07
40.1534,1274.8
40.1874,1290.59
40.2214,1272.72
40.2554,1345.09
40.2894,1312.04
40.3234,1303.07
40.3574,1355.11
40.3914,1303.65
40.4254,1247.22
40.4594,1281.41
40.4934,1254.73
40.5274,1284.64
40.5614,1143.12
40.5954,1168.47
40.6294,1077.11
40.6634,1029.45
40.6974,991.343
40.7314,997.263
40.7654,994.223
40.7994,930.473
40.8334,912.434
40.8674,897
40.9014,881.037
40.9354,868.862
40.9694,847.441
41.0034,799.907
41.0374,827.965
41.0714,792.395
41.1054,763.78
41.1394,726.667
41.1734,751.617
41.2074,746.994
41.2414,758.19
41.2754,733.429
41.3094,702.885
41.3434,684.447
41.3774,716.795
41.4114,704.682
41.4454,671.981
41.4794,672.708
41.5134,669.706
41.5474,679.093
41.5814,637.046
41.6154,672.679
41.6494,669.916
41.6834,634.435
41.7174,670.602
41.7514,673.254
41.7854,635.918
41.8194,670.634
41.8534,637.763
41.8874,659.055
41.9214,652.874
41.9554,666.946
41.9894,646.139
42.0234,685.645
42.0574,657.954
42.0914,655.985
42.1254,623.346
42.1594,653.672
42.1934,642.682
42.2274,655.073
42.2614,632.206
42.2954,667.443
42.3294,640.219
42.3634,647.118
42.3974,652.019
42.4314,651.454
42.4654,647.824
42.4994,659.134
42.5334,622.857
42.5674,625.936
42.6014,612.674
42.6354,619.153
42.6694,614.373
42.7034,647.884
42.7374,604.512
42.7714,629.036
42.8054,681.335
42.8394,631.766
42.8734,608.768
42.9074,617.824
42.9414,615.237
42.9754,633.527
43.0094,615.156
43.0434,565.868
43.0774,592.287
43.1114,630.283
43.1454,602.634
43.1794,625.13
43.2134,607.817
43.2474,599.578
43.2814,593.122
43.3154,583.31
43.3494,562.112
43.3834,615.352
43.4174,583.147
43.4514,594.713
43.4854,592.698
43.5194,565.004
43.5534,598.872
43.5874,536.09
43.6214,600
43.6554,594.365
43.6894,566.745
43.7234,540.739
43.7574,573.821
43.7914,550.513
43.8254,573.085
43.8594,581.582
43.8934,581.527
43.9274,573.113
43.9614,597.266
43.9954,533.077
44.0294,560.627
44.0634,582.743
44.0974,552.447
44.1314,568.331
44.1654,562.442
44.1994,584.209
44.2334,581.035
44.2674,501.586
44.3014,577.036
44.3354,530.93
44.3694,584.595
44.4034,563.041
44.4374,549.968
44.4714,537.625
44.5054,558.015
44.5394,544.752
44.5734,533.981
44.6074,567.994
44.6414,502.87
44.6754,549.254
44.7094,516.34
44.7434,548.196
44.7774,538.634
44.8114,540.06
44.8454,515.462
44.8794,491.831
44.9134,524.117
44.9474,520.689
44.9814,535.562
45.0154,557.538
45.0494,507
45.0834,495.764
45.1174,534.543
45.1514,528.162
45.1854,511.175
45.2194,514.527
45.2534,503.887
45.2874,528.711
45.3214,515.332
45.3554,477.956
45.3894,538.364
45.4234,503.111
45.4574,516.563
45.4914,527.79
45.5254,479.182
45.5594,564.223
45.5934,540.907
45.6274,484.458
45.6614,517.489
45.6954,536.824
45.7294,512.204
45.7634,456.176
45.7974,474.203
45.8314,522.127
45.8654,487.495
45.8994,486.319
45.9334,483.238
45.9674,497.492
46.0014,513.127
46.0354,497.384
46.0694,497.835
46.1034,509.648
46.1374,501.105
46.1714,518.702
46.2054,516.507
46.2394,488.55
46.2734,475.406
46.3074,474.218
46.3414,499.019
46.3754,522.178
46.4094,497.671
46.4434,488.601
46.4774,499.284
46.5114,506.304
46.5454,480.03
46.5794,473.103
46.6134,445.487
46.6474,481.556
46.6814,484.303
46.7154,435.018
46.7494,528.024
46.7834,489.09
46.8174,501.17
46.8514,499.783
46.8854,483.152
46.9194,473.752
46.9534,512.449
46.9874,548.706
47.0214,507.432
47.0554,498.285
47.0894,490.256
47.1234,497.245
47.1574,551.287
47.1914,520.523
47.2254,495.525
47.2594,514.912
47.2934,522.643
47.3274,484.205
47.3614,500.41
47.3954,510.32
47.4294,466.641
47.4634,515.807
47.4974,553.013
47.5314,530.761
47.5654,552.628
47.5994,516.956
47.6334,529.609
47.6674,497.107
47.7014,562.045
47.7354,584.483
47.7694,560.503
47.8034,511.171
47.8374,552.449
47.8714,586.594
47.9054,573.769
47.9394,588.421
47.9734,581.663
48.0074,617.719
48.0414,623.932
48.0754,637.507
48.1094,627.477
48.1434,647.521
48.1774,682.758
48.2114,663.691
48.2454,694.887
48.2794,665.504
48.3134,782.078
48.3474,807.81
48.3814,780.055
48.4154,845.742
48.4494,890.393
48.4834,915.88
48.5174,947
48.5514,1028.2
48.5854,1082.54
48.6194,1113.29
48.6534,1089.59
48.6874,1199.66
48.7214,1254.27
48.7554,1206.41
48.7894,1293.81
48.8234,1301
48.8574,1237.92
48.8914,1338.01
48.9254,1315.08
48.9594,1295.17
48.9934,1204.5
49.0274,1170.84
49.0614,1176.45
49.0954,1110.57
49.1294,1085.79
49.1634,1024.17
49.1974,951.639
49.2314,940.902
49.2654,873.509
49.2994,811.226
49.3334,833.901
49.3674,779.762
49.4014,751.365
49.4354,772.177
49.4694,685.678
49.5034,676.907
49.5374,688.641
49.5714,616.916
49.6054,591.928
49.6394,586.14
49.6734,603.609
49.7074,566.392
49.7414,557.317
49.7754,541.95
49.8094,530.205
49.8434,546.844
49.8774,511.216
49.9114,465.609
49.9454,504.666
49.9794,522.116
50.0134,519.19
50.0474,489.473
50.0814,488.385
50.1154,440.829
50.1494,492.072
50.1834,458.292
50.2174,469.609
50.2514,485.317
50.2854,462.658
50.3194,438.268
50.3534,470.55
50.3874,453.873
50.4214,469.368
50.4554,438.558
50.4894,433.406
50.5234,442.267
50.5574,407.766
50.5914,391.029
50.6254,445.916
50.6594,438.514
50.6934,446.953
50.7274,407.103
50.7614,435.36
50.7954,426.796
50.8294,443.325
50.8634,464.613
50.8974,413.721
50.9314,475.248
50.9654,430.123
50.9994,445.659
51.0334,403.355
51.0674,436.338
51.1014,410.833
51.1354,410.177
51.1694,408.641
51.2034,423.842
51.2374,390.22
51.2714,431.603
51.3054,376.414
51.3394,413.731
51.3734,417.351
51.4074,394.912
51.4414,375.429
51.4754,412.172
51.5094,415.216
51.5434,411.8
51.5774,428.493
51.6114,407.236
51.6454,407.156
51.6794,432.683
51.7134,411.985
51.7474,422.251
51.7814,412.157
51.8154,398.368
51.8494,430.917
51.8834,424.961
51.9174,427.699
51.9514,407.101
51.9854,428.54
52.0194,432.479
52.0534,408.683
52.0874,436.885
52.1214,453.035
52.1554,401.248
52.1894,413.077
52.2234,424.625
52.2574,465.064
52.2914,393.884
52.3254,426.913
52.3594,436.086
52.3934,407.895
52.4274,451.143
52.4614,445.847
52.4954,437.649
52.5294,418.834
52.5634,479.487
52.5974,433.697
52.6314,439.975
52.6654,464.194
52.6994,469.503
52.7334,438.339
52.7674,474.125
52.8014,454.729
52.8354,465.976
52.8694,468.819
52.9034,497.585
52.9374,441.734
52.9714,459.989
53.0054,476.886
53.0394,475.697
53.0734,473.32
53.1074,474.686
53.1414,500.215
53.1754,523.78
53.2094,532.175
53.2434,547.221
53.2774,557.182
53.3114,561.81
53.3454,587.648
53.3794,562.008
53.4134,641.219
53.4474,637.254
53.4814,626.45
53.5154,641.315
53.5494,681.941
53.5834,686
53.6174,735.317
53.6514,697.084
53.6854,708.618
53.7194,734.923
53.7534,776.62
53.7874,822.266
53.8214,877.044
53.8554,937.02
53.8894,907.274
53.9234,946.066
53.9574,1005.7
53.9914,1045.96
54.0254,1116.57
54.0594,1105.5
54.0934,1134.36
54.1274,1205.98
54.1614,1253.83
54.1954,1253.27
54.2294,1210.84
54.2634,1259.34
54.2974,1228.36
54.3314,1242.52
54.3654,1229.97
54.3994,1151.7
54.4334,1117.09
54.4674,1111.59
54.5014,1082.54
54.5354,1099.82
54.5694,1050.01
54.6034,1029.88
54.6374,1018.25
54.6714,999.48
54.7054,898.9
54.7394,899.804
54.7734,891.297
54.8074,842.348
54.8414,852.243
54.8754,807.509
54.9094,798.838
54.9434,839.395
54.9774,784.557
55.0114,770.925
55.0454,720.484
55.0794,724.55
55.1134,759.574
55.1474,717.564
55.1814,733.37
55.2154,693.872
55.2494,719.046
55.2834,680.128
55.3174,676.889
55.3514,683.962
55.3854,681.621
55.4194,676.471
55.4534,701.095
55.4874,677.577
55.5214,692
55.5554,711.128
55.5894,729.945
55.6234,745.118
55.6574,713.753
55.6914,698.818
55.7254,711.606
55.7594,716.638
55.7934,756.739
55.8274,739.754
55.8614,711.07
55.8954,737.976
55.9294,721.111
55.9634,713.651
55.9974,726.804
56.0314,729.956
56.0654,681.563
56.0994,665.867
56.1334,681.168
56.1674,669.529
56.2014,677.057
56.2354,619
56.2694,677.119
56.3034,620.266
56.3374,608.534
56.3714,614.928
56.4054,583.181
56.4394,558.585
56.4734,523.576
56.5074,534.989
56.5414,536.019
56.5754,546.224
56.6094,474.353
56.6434,505.468
56.6774,487
56.7114,478.838
56.7454,483.196
56.7794,497.855
56.8134,476.158
56.8474,439.287
56.8814,469.056
56.9154,464.957
56.9494,429.911
56.9834,454.313
57.0174,444.145
57.0514,443.097
57.0854,407.142
57.1194,425.717
57.1534,448.345
57.1874,403.931
57.2214,389.653
57.2554,422.211
57.2894,385.89
57.3234,375.773
57.3574,413.495
57.3914,445.441
57.4254,362.926
57.4594,389.875
57.4934,397.834
57.5274,397.873
57.5614,384.824
57.5954,370.795
57.6294,405.112
57.6634,357.037
57.6974,403.779
57.7314,357.935
57.7654,391.264
57.7994,388.898
57.8334,378.901
57.8674,408.137
57.9014,387.37
57.9354,394.022
57.9694,354.581
58.0034,389.694
58.0374,390.351
58.0714,380.262
58.1054,387.149
58.1394,400.783
58.1734,389.117
58.2074,377.405
58.2414,363.287
58.2754,374.647
58.3094,376.617
58.3434,426.52
58.3774,412.802
58.4114,397.121
58.4454,399.153
58.4794,400.39
58.5134,411.457
58.5474,423.01
58.5814,397.841
58.6154,432.513
58.6494,440.64
58.6834,427.831
58.7174,422.706
58.7514,397.514
58.7854,408.538
58.8194,409.344
58.8534,439.511
58.8874,399.471
58.9214,428.873
58.9554,418.834
58.9894,436.618
59.0234,378.652
59.0574,422.953
59.0914,389.986
59.1254,387.977
59.1594,405.918
59.1934,423.27
59.2274,419.892
59.2614,409.397
59.2954,365.142
59.3294,395.258
59.3634,377.947
59.3974,371.452
59.4314,385.198
59.4654,371.635
59.4994,380.728
59.5334,402.771
59.5674,360.126
59.6014,403.333
59.6354,382.872
59.6694,375.865
59.7034,368.359
59.7374,351.867
59.7714,361.711
59.8054,393.509
59.8394,379.111
59.8734,369.324
59.9074,363.158
59.9414,369.904
59.9754,387.098
60.0094,390.133
60.0434,339.199
60.0774,368.426
60.1114,360.495
60.1454,382.604
60.1794,359.827
60.2134,395.771
60.2474,392.792
60.2814,407.198
60.3154,376.243
60.3494,396.997
60.3834,399.004
60.4174,398.585
60.4514,429.172
60.4854,376.383
60.5194,416.731
60.5534,358
60.5874,408.701
60.6214,429.619
60.6554,402.973
60.6894,442.288
60.7234,398.441
60.7574,435.882
60.7914,452.408
60.8254,438.812
60.8594,464.311
60.8934,469.185
60.9274,479.983
60.9614,475.712
60.9954,483.313
61.0294,490.673
61.0634,518.018
61.0974,506.52
61.1314,484.178
61.1654,551.089
61.1994,536.909
61.2334,531.323
61.2674,559.782
61.3014,551.935
61.3354,526.006
61.3694,614.271
61.4034,551.988
61.4374,534.906
61.4714,568.178
61.5054,550.494
61.5394,520.043
61.5734,573.756
61.6074,584.711
61.6414,564
61.6754,513.017
61.7094,556.662
61.7434,521.167
61.7774,524.271
61.8114,528.797
61.8454,561.208
61.8794,545.52
61.9134,530.216
61.9474,500.779
61.9814,542.683
62.0154,561.526
62.0494,494.532
62.0834,525.295
62.1174,547.751
62.1514,532.068
62.1854,596.384
62.2194,485.87
62.2534,486.255
62.2874,483.741
62.3214,501.172
62.3554,494.537
62.3894,491.611
62.4234,512.569
62.4574,498.862
62.4914,474.929
62.5254,455.536
62.5594,472.361
62.5934,444.439
62.6274,402.755
62.6614,436.863
62.6954,394.603
62.7294,394.581
62.7634,402.064
62.7974,406.609
62.8314,423.371
62.8654,426.755
62.8994,396.914
62.9334,385.016
62.9674,404.358
63.0014,379.915
63.0354,425.407
63.0694,343.122
63.1034,352.866
63.1374,382
63.1714,368.547
63.2054,380.244
63.2394,384.047
63.2734,374.858
63.3074,296.171
63.3414,343.675
63.3754,336.257
63.4094,369.22
63.4434,340.887
63.4774,329.293
63.5114,336.459
63.5454,333.824
63.5794,331.612
63.6134,339.22
63.6474,331.737
63.6814,338.931
63.7154,313.53
63.7494,325.259
63.7834,303.105
63.8174,310.342
63.8514,315.46
63.8854,332.194
63.9194,298.645
63.9534,307.024
63.9874,296.275
64.0214,310.633
64.0554,285.179
64.0894,316.381
64.1234,294.329
64.1574,312.6
64.1914,299.677
64.2254,299.817
64.2594,324.21
64.2934,345.581
64.3274,309.273
64.3614,304.18
64.3954,284.265
64.4294,289.196
64.4634,295.782
64.4974,303.414
64.5314,289.499
64.5654,313.745
64.5994,317.723
64.6334,293.259
64.6674,304.01
64.7014,300.383
64.7354,315.893
64.7694,303.492
64.8034,293.951
64.8374,295.506
64.8714,316.787
64.9054,310.234
64.9394,293.051
64.9734,305.797
65.0074,309.048
65.0414,324.453
65.0754,316.227
65.1094,316.213
65.1434,315.849
65.1774,315.573
65.2114,273.293
65.2454,305.733
65.2794,316.938
65.3134,306.583
65.3474,288.477
65.3814,308.492
65.4154,303.268
65.4494,307.986
65.4834,298.347
65.5174,290
65.5514,286.595
65.5854,295.787
65.6194,275.082
65.6534,287.144
65.6874,275.275
65.7214,275.919
65.7554,262.589
65.7894,278.586
65.8234,285.115
65.8574,293.369
65.8914,281.089
65.9254,285.337
65.9594,260.479
65.9934,299.568
66.0274,282.558
66.0614,276.898
66.0954,279.717
66.1294,262.794
66.1634,253.186
66.1974,275.021
66.2314,274.845
66.2654,289.727
66.2994,268
66.3334,254.571
66.3674,260.241
66.4014,283.013
66.4354,275.704
66.4694,264.252
66.5034,242.086
66.5374,275
66.5714,283.085
66.6054,270.397
66.6394,268.15
66.6734,279.156
66.7074,278.309
66.7414,288.283
66.7754,277.877
66.8094,268.347
66.8434,258.609
66.8774,261.946
66.9114,273.317
66.9454,264.704
66.9794,272.858
67.0134,283.501
67.0474,294.964
67.0814,237.906
67.1154,253.134
67.1494,263.019
67.1834,257.764
67.2174,287.359
67.2514,238.595
67.2854,270.245
67.3194,276.585
67.3534,278.4
67.3874,277.862
67.4214,260.809
67.4554,283.003
67.4894,246.974
67.5234,269.927
67.5574,270.557
67.5914,271.039
67.6254,278.789
67.6594,277.841
67.6934,271.262
67.7274,274.072
67.7614,257.109
67.7954,269.73
67.8294,269.758
67.8634,287.362
67.8974,276.684
67.9314,278.528
67.9654,266.574
67.9994,274.082
68.0334,255.778
68.0674,250.501
68.1014,252.635
68.1354,291.955
68.1694,276.843
68.2034,264.767
68.2374,276.415
68.2714,280.028
68.3054,239.6
68.3394,290.526
68.3734,258.381
68.4074,273.356
68.4414,280.911
68.4754,284.082
68.5094,280.362
68.5434,277.208
68.5774,287.606
68.6114,281.18
68.6454,263.114
68.6794,270.559
68.7134,267.492
68.7474,262.535
68.7814,285.345
68.8154,282.168
68.8494,284.396
68.8834,283.478
68.9174,290.307
68.9514,280.742
68.9854,262.297
69.0194,265.641
69.0534,302.689
69.0874,273.541
69.1214,278.359
69.1554,279.202
69.1894,292.81
69.2234,277.562
69.2574,273.225
69.2914,309.757
69.3254,324.43
69.3594,331.018
69.3934,305.979
69.4274,334.138
69.4614,317.333
69.4954,348.445
69.5294,323.649
69.5634,318.471
69.5974,310.798
69.6314,349.335
69.6654,328.423
69.6994,340.975
69.7334,342.111
69.7674,359.717
69.8014,351.637
69.8354,359.437
69.8694,336.779
69.9034,357.549
69.9374,358.593
69.9714,390.126
69.9884,363.54