File: herald_visualization/Delia_Scripts/VF4_1to1_KS6Lgraphite/fitted-VF4_1to1_KS6Lgraphite-0min_milled-Quinn_mixed-20-70deg_40min.csv
2Theta,Intensity
20.0254,1375.02
20.0594,1402.11
20.0934,1375.7
20.1274,1353.12
20.1614,1370.17
20.1954,1350.06
20.2294,1420.28
20.2634,1421.59
20.2974,1355.3
20.3314,1280.81
20.3654,1349.79
20.3994,1333.25
20.4334,1374.18
20.4674,1325.4
20.5014,1340.48
20.5354,1313.39
20.5694,1326.76
20.6034,1274.26
20.6374,1260.78
20.6714,1275.73
20.7054,1290.58
20.7394,1248.89
20.7734,1281.99
20.8074,1295.75
20.8414,1265.45
20.8754,1262.18
20.9094,1249.05
20.9434,1222.34
20.9774,1219.47
21.0114,1198.56
21.0454,1224
21.0794,1190.94
21.1134,1214.22
21.1474,1205.78
21.1814,1198.71
21.2154,1168.87
21.2494,1219.16
21.2834,1200.39
21.3174,1236.99
21.3514,1158.33
21.3854,1169.16
21.4194,1205.74
21.4534,1199.75
21.4874,1159.25
21.5214,1143.52
21.5554,1118.29
21.5894,1156.35
21.6234,1166.38
21.6574,1157.3
21.6914,1127.79
21.7254,1151.53
21.7594,1127.23
21.7934,1124.26
21.8274,1108.18
21.8614,1118.83
21.8954,1142.27
21.9294,1075.05
21.9634,1084.93
21.9974,1045.58
22.0314,1076.57
22.0654,1083.1
22.0994,1087.38
22.1334,1063.32
22.1674,1042.83
22.2014,1046.89
22.2354,1026.32
22.2694,1058.59
22.3034,1050.56
22.3374,1026.15
22.3714,1020.94
22.4054,1046.53
22.4394,1033.88
22.4734,1027.47
22.5074,1040.54
22.5414,1039.02
22.5754,993.475
22.6094,1020.95
22.6434,988.663
22.6774,1015.95
22.7114,1045.82
22.7454,1039.63
22.7794,972.555
22.8134,1018.97
22.8474,1027.43
22.8814,1066.24
22.9154,1037.32
22.9494,1023.75
22.9834,1054.62
23.0174,1044.59
23.0514,1000.54
23.0854,1046
23.1194,1015.49
23.1534,1083.32
23.1874,1058.31
23.2214,1082.94
23.2554,1055
23.2894,1103.62
23.3234,1162.54
23.3574,1114.84
23.3914,1188.64
23.4254,1178.66
23.4594,1220.29
23.4934,1254.37
23.5274,1281.93
23.5614,1327.27
23.5954,1390.38
23.6294,1452.45
23.6634,1565.15
23.6974,1666.72
23.7314,1811.46
23.7654,1941.48
23.7994,2056.17
23.8334,2247.63
23.8674,2386.42
23.9014,2465.48
23.9354,2439.95
23.9694,2495.18
24.0034,2441.76
24.0374,2383.62
24.0714,2112
24.1054,1958.43
24.1394,1796.06
24.1734,1670.95
24.2074,1583.88
24.2414,1424.62
24.2754,1360.49
24.3094,1267.93
24.3434,1215.13
24.3774,1126.13
24.4114,1088.9
24.4454,1049.68
24.4794,993.68
24.5134,1013.36
24.5474,945.219
24.5814,961.958
24.6154,963
24.6494,943.734
24.6834,894.497
24.7174,892.073
24.7514,901.23
24.7854,865.595
24.8194,866.448
24.8534,899.916
24.8874,904.132
24.9214,858.878
24.9554,831.778
24.9894,795.8
25.0234,796.744
25.0574,851.742
25.0914,794.158
25.1254,797.008
25.1594,797.464
25.1934,877.876
25.2274,825.31
25.2614,825.262
25.2954,793.373
25.3294,809.447
25.3634,795.806
25.3974,824.402
25.4314,839.789
25.4654,871.845
25.4994,909.484
25.5334,978.765
25.5674,1089.63
25.6014,1279.6
25.6354,1494.2
25.6694,1933.23
25.7034,2589
25.7374,3631.62
25.7714,4104.57
25.8054,4069.16
25.8394,3716.21
25.8734,2636.59
25.9074,1997.7
25.9414,1391.47
25.9754,1020.78
26.0094,873.911
26.0434,863.863
26.0774,837.151
26.1114,846.149
26.1454,829.796
26.1794,883.878
26.2134,836.521
26.2474,843.52
26.2814,889.639
26.3154,941.43
26.3494,1024.12
26.3834,1182.64
26.4174,1281.54
26.4514,1445.66
26.4854,1642.22
26.5194,1770.38
26.5534,1561.16
26.5874,1350.31
26.6214,1143.16
26.6554,958.333
26.6894,830.039
26.7234,817.565
26.7574,734.927
26.7914,744.293
26.8254,737.72
26.8594,709.293
26.8934,689.051
26.9274,728.448
26.9614,704.34
26.9954,679.303
27.0294,644.442
27.0634,686.489
27.0974,657.819
27.1314,635.957
27.1654,681.128
27.1994,648.945
27.2334,617.976
27.2674,634.449
27.3014,642.455
27.3354,653.6
27.3694,590.579
27.4034,647.032
27.4374,641.255
27.4714,633.153
27.5054,608.506
27.5394,630.38
27.5734,597.77
27.6074,583.43
27.6414,621.028
27.6754,596.377
27.7094,626.11
27.7434,619.584
27.7774,585.625
27.8114,577.505
27.8454,584.12
27.8794,603.003
27.9134,594.989
27.9474,607.794
27.9814,580.271
28.0154,592.24
28.0494,599.138
28.0834,552.999
28.1174,631.587
28.1514,596.14
28.1854,622.641
28.2194,561.259
28.2534,566.38
28.2874,575.858
28.3214,548.269
28.3554,562.949
28.3894,545.357
28.4234,550.036
28.4574,571.543
28.4914,546.757
28.5254,551.503
28.5594,539.806
28.5934,541.901
28.6274,561.715
28.6614,546.724
28.6954,565.101
28.7294,545.132
28.7634,511.203
28.7974,520.19
28.8314,516.625
28.8654,562.962
28.8994,513.579
28.9334,509.467
28.9674,521.473
29.0014,524.888
29.0354,550.093
29.0694,548.03
29.1034,531.041
29.1374,512.166
29.1714,499.058
29.2054,520.875
29.2394,529.925
29.2734,536.82
29.3074,499.069
29.3414,519.719
29.3754,516.12
29.4094,505.782
29.4434,526.891
29.4774,531.698
29.5114,516.506
29.5454,499.24
29.5794,473.91
29.6134,520.379
29.6474,516.275
29.6814,468.254
29.7154,526.773
29.7494,467.4
29.7834,483.758
29.8174,499.768
29.8514,506.963
29.8854,467.149
29.9194,523.251
29.9534,507.959
29.9874,509.154
30.0214,481.999
30.0554,484.436
30.0894,472.456
30.1234,475.961
30.1574,497.462
30.1914,461.561
30.2254,489.909
30.2594,472.134
30.2934,469.282
30.3274,493.388
30.3614,453.522
30.3954,440.896
30.4294,428.685
30.4634,435.105
30.4974,477.038
30.5314,459.324
30.5654,431.777
30.5994,481.944
30.6334,467.164
30.6674,474.833
30.7014,472.029
30.7354,432.641
30.7694,490.569
30.8034,472.34
30.8374,459.848
30.8714,458.828
30.9054,453.625
30.9394,436.519
30.9734,420.076
31.0074,418.215
31.0414,466.899
31.0754,436.009
31.1094,431.45
31.1434,431.852
31.1774,414.269
31.2114,449.895
31.2454,413.523
31.2794,453.989
31.3134,424.593
31.3474,418.959
31.3814,446.124
31.4154,439.526
31.4494,448.693
31.4834,408.803
31.5174,401.727
31.5514,407.389
31.5854,444.661
31.6194,403.417
31.6534,445.022
31.6874,429.437
31.7214,415.766
31.7554,444.104
31.7894,405.346
31.8234,395.151
31.8574,400.19
31.8914,405.462
31.9254,410.228
31.9594,377.631
31.9934,399.121
32.0274,406.257
32.0614,396.999
32.0954,434.569
32.1294,393.94
32.1634,400.637
32.1974,393.851
32.2314,401.595
32.2654,409.914
32.2994,419.851
32.3334,392.629
32.3674,414.371
32.4014,398.335
32.4354,418.096
32.4694,409.769
32.5034,413.943
32.5374,404.729
32.5714,430.104
32.6054,443.401
32.6394,389.207
32.6734,417.565
32.7074,373.655
32.7414,389.835
32.7754,431.824
32.8094,447.568
32.8434,423.26
32.8774,393.404
32.9114,423.522
32.9454,405.779
32.9794,416.548
33.0134,426.826
33.0474,473.733
33.0814,416.027
33.1154,428.631
33.1494,433.756
33.1834,490.931
33.2174,480.533
33.2514,513.199
33.2854,496.012
33.3194,520.096
33.3534,566.158
33.3874,583.34
33.4214,607.819
33.4554,632.996
33.4894,717.69
33.5234,814.336
33.5574,882.189
33.5914,828.414
33.6254,685.927
33.6594,647.438
33.6934,554.589
33.7274,475.367
33.7614,473.709
33.7954,445.097
33.8294,447.953
33.8634,419.6
33.8974,405.98
33.9314,420.774
33.9654,427.664
33.9994,410.171
34.0334,411.028
34.0674,386.564
34.1014,392.756
34.1354,411.634
34.1694,400.923
34.2034,379.194
34.2374,373.845
34.2714,412.496
34.3054,396.707
34.3394,386.39
34.3734,355.801
34.4074,400.732
34.4414,392.773
34.4754,414.187
34.5094,413.049
34.5434,446.911
34.5774,484.554
34.6114,522.16
34.6454,500.653
34.6794,520.292
34.7134,529.751
34.7474,493.33
34.7814,470.1
34.8154,432.537
34.8494,416.251
34.8834,404.292
34.9174,376.982
34.9514,397.683
34.9854,384.437
35.0194,365.961
35.0534,368.709
35.0874,323.097
35.1214,312.878
35.1554,346.944
35.1894,320.01
35.2234,331.582
35.2574,333.051
35.2914,335.587
35.3254,314.717
35.3594,340.034
35.3934,312.365
35.4274,309.093
35.4614,310.107
35.4954,328.081
35.5294,344.745
35.5634,325.382
35.5974,317.721
35.6314,326.462
35.6654,317.262
35.6994,302.686
35.7334,291.2
35.7674,308.869
35.8014,313.866
35.8354,335.838
35.8694,302.24
35.9034,308.536
35.9374,284.865
35.9714,288.842
36.0054,303.159
36.0394,307.005
36.0734,288.946
36.1074,291.171
36.1414,293.255
36.1754,280.327
36.2094,276.105
36.2434,283.002
36.2774,293.327
36.3114,313.462
36.3454,280.661
36.3794,298.296
36.4134,302.215
36.4474,300.367
36.4814,290.902
36.5154,285.82
36.5494,283.678
36.5834,310.389
36.6174,284.557
36.6514,274.875
36.6854,306.493
36.7194,269.853
36.7534,281.129
36.7874,313.197
36.8214,280.189
36.8554,297.733
36.8894,297.097
36.9234,293.235
36.9574,284.806
36.9914,291.166
37.0254,267.911
37.0594,261.353
37.0934,295.996
37.1274,300.819
37.1614,284.013
37.1954,295.757
37.2294,277.96
37.2634,291.758
37.2974,289.429
37.3314,285.729
37.3654,270.011
37.3994,291.05
37.4334,287.482
37.4674,285.182
37.5014,298.893
37.5354,313.903
37.5694,299.566
37.6034,303.588
37.6374,317.751
37.6714,308.612
37.7054,344.196
37.7394,357.856
37.7734,365.677
37.8074,350.772
37.8414,323.006
37.8754,342.824
37.9094,315.647
37.9434,315.456
37.9774,309.412
38.0114,319.594
38.0454,292.973
38.0794,273.251
38.1134,289.815
38.1474,308.461
38.1814,290.06
38.2154,297.513
38.2494,299.922
38.2834,320.72
38.3174,318.504
38.3514,378.979
38.3854,413.304
38.4194,474.307
38.4534,489.523
38.4874,494.673
38.5214,502.537
38.5554,457.751
38.5894,422.622
38.6234,357.43
38.6574,337.347
38.6914,305.274
38.7254,332.071
38.7594,314.082
38.7934,287.734
38.8274,284.137
38.8614,271.539
38.8954,289
38.9294,316.86
38.9634,294.704
38.9974,287.804
39.0314,299.011
39.0654,276.899
39.0994,279.055
39.1334,272.565
39.1674,259.528
39.2014,270.051
39.2354,278.197
39.2694,273.058
39.3034,293.014
39.3374,276.513
39.3714,274.36
39.4054,265.877
39.4394,271.483
39.4734,269.309
39.5074,271.452
39.5414,261.588
39.5754,264
39.6094,284.394
39.6434,310.226
39.6774,314.863
39.7114,324.851
39.7454,347.941
39.7794,403.935
39.8134,413.761
39.8474,469.075
39.8814,545.383
39.9154,619.607
39.9494,569.933
39.9834,602.976
40.0174,565.679
40.0514,496.667
40.0854,473.664
40.1194,441.53
40.1534,430.515
40.1874,435.017
40.2214,479.914
40.2554,468.441
40.2894,492.142
40.3234,526.214
40.3574,517.582
40.3914,578.93
40.4254,528.255
40.4594,559.809
40.4934,487.925
40.5274,471.484
40.5614,491.546
40.5954,464.693
40.6294,402.985
40.6634,420.108
40.6974,392.49
40.7314,425.823
40.7654,350.616
40.7994,324.263
40.8334,351.368
40.8674,343.011
40.9014,294.703
40.9354,307.925
40.9694,321.474
41.0034,302.351
41.0374,290.531
41.0714,297.221
41.1054,283.506
41.1394,284.761
41.1734,269.213
41.2074,274.449
41.2414,258.436
41.2754,267.044
41.3094,257.053
41.3434,238.965
41.3774,240.819
41.4114,249.546
41.4454,267.38
41.4794,247.93
41.5134,257.405
41.5474,244.294
41.5814,218.718
41.6154,223.12
41.6494,249.966
41.6834,233.217
41.7174,247.365
41.7514,245.94
41.7854,238.724
41.8194,228.997
41.8534,231.21
41.8874,251.363
41.9214,254.395
41.9554,241.808
41.9894,260.42
42.0234,229.494
42.0574,233.091
42.0914,259.098
42.1254,260.827
42.1594,266.178
42.1934,301.473
42.2274,285.982
42.2614,276.013
42.2954,345.019
42.3294,397.905
42.3634,450.919
42.3974,477.319
42.4314,450.324
42.4654,472.18
42.4994,456.291
42.5334,477.428
42.5674,470.29
42.6014,495.723
42.6354,438.132
42.6694,385.994
42.7034,410.031
42.7374,348.501
42.7714,339.823
42.8054,281.598
42.8394,268.612
42.8734,268.278
42.9074,262.724
42.9414,226.465
42.9754,253.239
43.0094,237.948
43.0434,230.569
43.0774,240.109
43.1114,248.434
43.1454,227.852
43.1794,226.747
43.2134,219.672
43.2474,248.266
43.2814,226.898
43.3154,238.063
43.3494,222.055
43.3834,219.38
43.4174,236.8
43.4514,228.657
43.4854,217.721
43.5194,220.105
43.5534,199.82
43.5874,228.497
43.6214,225.018
43.6554,193.398
43.6894,244.833
43.7234,212.046
43.7574,234.579
43.7914,197.2
43.8254,210.709
43.8594,212.19
43.8934,215.301
43.9274,204.573
43.9614,239.916
43.9954,210.379
44.0294,230.424
44.0634,217.27
44.0974,221.387
44.1314,202.856
44.1654,212.036
44.1994,202.861
44.2334,238.379
44.2674,219.069
44.3014,223.208
44.3354,218.593
44.3694,199.135
44.4034,222.215
44.4374,216.473
44.4714,230.313
44.5054,252.779
44.5394,195.915
44.5734,211.102
44.6074,223.989
44.6414,215.623
44.6754,222.092
44.7094,205.104
44.7434,221.055
44.7774,220.489
44.8114,247.013
44.8454,203.574
44.8794,202.723
44.9134,214.247
44.9474,206.925
44.9814,190.337
45.0154,211.754
45.0494,208.302
45.0834,205.267
45.1174,194.024
45.1514,197.339
45.1854,207.117
45.2194,189.264
45.2534,208.573
45.2874,191.774
45.3214,198.368
45.3554,199.478
45.3894,202.704
45.4234,180.379
45.4574,177
45.4914,196.269
45.5254,194.265
45.5594,205.222
45.5934,179.054
45.6274,202.252
45.6614,190.209
45.6954,191.509
45.7294,184.41
45.7634,186.566
45.7974,195.688
45.8314,187.915
45.8654,185.585
45.8994,199.702
45.9334,179
45.9674,166.361
46.0014,181.417
46.0354,189.548
46.0694,191.567
46.1034,200.86
46.1374,174.776
46.1714,179.166
46.2054,170.128
46.2394,176.681
46.2734,206.715
46.3074,178.543
46.3414,186.607
46.3754,171.345
46.4094,173.182
46.4434,196.001
46.4774,169.172
46.5114,154.284
46.5454,178.467
46.5794,170.99
46.6134,164.777
46.6474,184.482
46.6814,172.674
46.7154,189.141
46.7494,195.603
46.7834,164.453
46.8174,194.519
46.8514,186.437
46.8854,161.791
46.9194,161.093
46.9534,169.086
46.9874,184.965
47.0214,170.922
47.0554,189.751
47.0894,193.314
47.1234,172.925
47.1574,180.115
47.1914,175.911
47.2254,173.568
47.2594,191.097
47.2934,171.58
47.3274,172.394
47.3614,182.405
47.3954,181.989
47.4294,196.802
47.4634,160.706
47.4974,198.013
47.5314,178.248
47.5654,176.888
47.5994,188.004
47.6334,196.498
47.6674,176.103
47.7014,190.548
47.7354,199.764
47.7694,196.427
47.8034,199.742
47.8374,197.882
47.8714,187.59
47.9054,177.577
47.9394,201.42
47.9734,203.795
48.0074,203.419
48.0414,189.27
48.0754,192.677
48.1094,182.839
48.1434,201.272
48.1774,196.064
48.2114,199.728
48.2454,203.678
48.2794,207.06
48.3134,191.56
48.3474,230.847
48.3814,231.018
48.4154,231.645
48.4494,245.905
48.4834,198.14
48.5174,243.153
48.5514,259.128
48.5854,269.563
48.6194,272.687
48.6534,280.03
48.6874,316.589
48.7214,355.545
48.7554,365.402
48.7894,363.02
48.8234,404.998
48.8574,437.97
48.8914,533.384
48.9254,617.24
48.9594,718.089
48.9934,913.543
49.0274,963.432
49.0614,941.495
49.0954,789.485
49.1294,761.631
49.1634,712.173
49.1974,608.713
49.2314,498.386
49.2654,421.995
49.2994,407.384
49.3334,373.745
49.3674,361.6
49.4014,324.143
49.4354,301.849
49.4694,271.01
49.5034,256.863
49.5374,261.798
49.5714,258.535
49.6054,209.848
49.6394,242.932
49.6734,199.701
49.7074,227.248
49.7414,226.284
49.7754,200.241
49.8094,192.575
49.8434,210.734
49.8774,201.221
49.9114,197.261
49.9454,193.463
49.9794,179.237
50.0134,190.585
50.0474,184.357
50.0814,179.487
50.1154,186.211
50.1494,188.035
50.1834,181.658
50.2174,182.274
50.2514,182.474
50.2854,174.543
50.3194,156.552
50.3534,153.87
50.3874,165.498
50.4214,171.651
50.4554,175.614
50.4894,180.894
50.5234,163.08
50.5574,178.239
50.5914,181.258
50.6254,165.159
50.6594,144.911
50.6934,179.303
50.7274,188.042
50.7614,166.615
50.7954,160.596
50.8294,162.784
50.8634,164.798
50.8974,168.164
50.9314,162.852
50.9654,175.163
50.9994,155
51.0334,163.367
51.0674,167.507
51.1014,145.403
51.1354,164.906
51.1694,163.378
51.2034,159.251
51.2374,175.302
51.2714,165.471
51.3054,164.657
51.3394,156.304
51.3734,195.106
51.4074,134.029
51.4414,155.234
51.4754,138.44
51.5094,176.768
51.5434,147.45
51.5774,180.985
51.6114,166.881
51.6454,162.31
51.6794,178.952
51.7134,176.441
51.7474,193.052
51.7814,163.508
51.8154,177.14
51.8494,173.946
51.8834,153.164
51.9174,174.043
51.9514,171.97
51.9854,171.987
52.0194,157.73
52.0534,173.661
52.0874,168.014
52.1214,159.439
52.1554,176.864
52.1894,159.576
52.2234,176.492
52.2574,176.25
52.2914,163.139
52.3254,152.26
52.3594,168.155
52.3934,134.756
52.4274,165.702
52.4614,180.966
52.4954,183.562
52.5294,215.437
52.5634,188.7
52.5974,179.545
52.6314,197.975
52.6654,180.516
52.6994,214.101
52.7334,220.335
52.7674,222.412
52.8014,251.686
52.8354,260
52.8694,295.339
52.9034,354.381
52.9374,370.936
52.9714,376.52
53.0054,349.608
53.0394,367.676
53.0734,399.555
53.1074,419.581
53.1414,395.134
53.1754,356.795
53.2094,291.973
53.2434,300.556
53.2774,269.505
53.3114,269.766
53.3454,251.17
53.3794,173.537
53.4134,200.099
53.4474,177.462
53.4814,177.393
53.5154,186.837
53.5494,184.799
53.5834,207.027
53.6174,196.736
53.6514,200.924
53.6854,209.681
53.7194,214.831
53.7534,197.737
53.7874,223.339
53.8214,212.078
53.8554,238.401
53.8894,236.332
53.9234,264.121
53.9574,251.034
53.9914,265.38
54.0254,300.733
54.0594,313.572
54.0934,296.768
54.1274,306.933
54.1614,312.545
54.1954,356.397
54.2294,393.862
54.2634,427.69
54.2974,422.661
54.3314,457.361
54.3654,440.605
54.3994,442.189
54.4334,413.641
54.4674,459.913
54.5014,439.649
54.5354,434.457
54.5694,409.043
54.6034,441.079
54.6374,452.499
54.6714,457.044
54.7054,475.782
54.7394,470.982
54.7734,483.326
54.8074,486.247
54.8414,464.898
54.8754,505.873
54.9094,494.664
54.9434,488.461
54.9774,504.38
55.0114,504.284
55.0454,477.299
55.0794,473.081
55.1134,434.86
55.1474,414.378
55.1814,407.768
55.2154,406.564
55.2494,374.651
55.2834,397.681
55.3174,405.082
55.3514,436.399
55.3854,561.375
55.4194,515.604
55.4534,457.24
55.4874,513.409
55.5214,521.49
55.5554,460.322
55.5894,370.728
55.6234,390.163
55.6574,323.774
55.6914,287.028
55.7254,258.691
55.7594,233.674
55.7934,234.873
55.8274,222.364
55.8614,260.283
55.8954,230.689
55.9294,247.645
55.9634,249.482
55.9974,232.614
56.0314,252.552
56.0654,255.25
56.0994,278.99
56.1334,267.551
56.1674,287.753
56.2014,278.728
56.2354,263.27
56.2694,306.917
56.3034,266.501
56.3374,284.321
56.3714,269.568
56.4054,277.095
56.4394,217.271
56.4734,273.15
56.5074,212.384
56.5414,211.852
56.5754,216.672
56.6094,223.789
56.6434,208.1
56.6774,211.073
56.7114,196.814
56.7454,224.065
56.7794,239.888
56.8134,231.024
56.8474,259.134
56.8814,302.51
56.9154,343.253
56.9494,372.81
56.9834,365.209
57.0174,337.212
57.0514,313.506
57.0854,293.128
57.1194,281.074
57.1534,251.694
57.1874,255.516
57.2214,193.972
57.2554,211.737
57.2894,208.458
57.3234,156.756
57.3574,166.918
57.3914,149.137
57.4254,174.102
57.4594,166.748
57.4934,175.377
57.5274,158.893
57.5614,143.492
57.5954,145.209
57.6294,163.468
57.6634,131.89
57.6974,147.474
57.7314,157.88
57.7654,148.758
57.7994,123.163
57.8334,149.703
57.8674,144.205
57.9014,149.985
57.9354,147.784
57.9694,152.523
58.0034,139.383
58.0374,134.552
58.0714,138.731
58.1054,141.425
58.1394,141.955
58.1734,124.423
58.2074,136.126
58.2414,131.713
58.2754,129.297
58.3094,138.75
58.3434,129.649
58.3774,147.987
58.4114,135.995
58.4454,157.547
58.4794,149.085
58.5134,132.944
58.5474,169.791
58.5814,164.159
58.6154,145.137
58.6494,153.824
58.6834,154.08
58.7174,156.471
58.7514,150.138
58.7854,153.205
58.8194,159.214
58.8534,157.098
58.8874,174.82
58.9214,170.03
58.9554,181.756
58.9894,165.706
59.0234,186.782
59.0574,171.82
59.0914,202.572
59.1254,202.907
59.1594,190.629
59.1934,222.674
59.2274,227.065
59.2614,208.801
59.2954,197.5
59.3294,187
59.3634,191.076
59.3974,178.161
59.4314,182.272
59.4654,185.622
59.4994,159.68
59.5334,183.102
59.5674,164.28
59.6014,134.146
59.6354,160.502
59.6694,149.557
59.7034,149.462
59.7374,135.911
59.7714,152.825
59.8054,142.128
59.8394,140.26
59.8734,140.292
59.9074,126.595
59.9414,141.638
59.9754,137
60.0094,145.617
60.0434,146.332
60.0774,137.15
60.1114,145.579
60.1454,141.66
60.1794,138.173
60.2134,135.122
60.2474,138
60.2814,147.901
60.3154,131.112
60.3494,139.001
60.3834,148.206
60.4174,145.449
60.4514,131.793
60.4854,137.208
60.5194,139.239
60.5534,151.479
60.5874,158.958
60.6214,144.514
60.6554,128.514
60.6894,147.057
60.7234,139.201
60.7574,141.513
60.7914,150.531
60.8254,126.746
60.8594,143.964
60.8934,143.499
60.9274,153.681
60.9614,132.429
60.9954,169.127
61.0294,166
61.0634,151.098
61.0974,133.36
61.1314,154.725
61.1654,169.171
61.1994,165.136
61.2334,170.084
61.2674,176.462
61.3014,152.816
61.3354,160.03
61.3694,164.927
61.4034,183.213
61.4374,182.261
61.4714,215.134
61.5054,185.795
61.5394,196.117
61.5734,204.293
61.6074,195.763
61.6414,189.829
61.6754,192.525
61.7094,211.427
61.7434,179.002
61.7774,195.293
61.8114,191.771
61.8454,183.486
61.8794,180.096
61.9134,193.179
61.9474,184.248
61.9814,191.511
62.0154,189.623
62.0494,207.91
62.0834,174.85
62.1174,204.917
62.1514,192.506
62.1854,192.684
62.2194,208.302
62.2534,222.958
62.2874,200.458
62.3214,215.06
62.3554,189.159
62.3894,200.559
62.4234,210.385
62.4574,231.458
62.4914,200.95
62.5254,208.479
62.5594,211.344
62.5934,221.306
62.6274,198.93
62.6614,198.903
62.6954,195.305
62.7294,195.021
62.7634,198.655
62.7974,192.22
62.8314,164.567
62.8654,174.898
62.8994,160.957
62.9334,150.618
62.9674,158.073
63.0014,164.427
63.0354,144.433
63.0694,150.716
63.1034,151.604
63.1374,140.167
63.1714,143.396
63.2054,150.976
63.2394,138.945
63.2734,149.118
63.3074,114.104
63.3414,129.732
63.3754,131.429
63.4094,142.036
63.4434,134.443
63.4774,134.959
63.5114,142.945
63.5454,139.792
63.5794,149.413
63.6134,146.609
63.6474,137.923
63.6814,154.862
63.7154,167.53
63.7494,178.545
63.7834,178.004
63.8174,182.609
63.8514,198.149
63.8854,186.155
63.9194,213.554
63.9534,215.916
63.9874,237.797
64.0214,260.122
64.0554,279.017
64.0894,287.42
64.1234,274.354
64.1574,287.53
64.1914,292.805
64.2254,244.035
64.2594,269.158
64.2934,231.984
64.3274,229.605
64.3614,212.387
64.3954,171.224
64.4294,188.411
64.4634,134.877
64.4974,140.198
64.5314,129.251
64.5654,147.292
64.5994,118.938
64.6334,124
64.6674,122.33
64.7014,136.314
64.7354,120.745
64.7694,133.208
64.8034,114.522
64.8374,112.416
64.8714,130.935
64.9054,116.698
64.9394,130.994
64.9734,123.909
65.0074,120.855
65.0414,133.2
65.0754,125.758
65.1094,133.05
65.1434,130.209
65.1774,130.627
65.2114,106.294
65.2454,141.297
65.2794,132.062
65.3134,132.224
65.3474,136.35
65.3814,121.71
65.4154,131.446
65.4494,133.732
65.4834,138.647
65.5174,118.235
65.5514,120.294
65.5854,102.072
65.6194,116.897
65.6534,131.733
65.6874,123.7
65.7214,107.676
65.7554,121.506
65.7894,113.185
65.8234,115.231
65.8574,119.643
65.8914,108.66
65.9254,104.662
65.9594,127.64
65.9934,111.073
66.0274,108.983
66.0614,113.975
66.0954,140.472
66.1294,119.006
66.1634,105.46
66.1974,98.6442
66.2314,123.889
66.2654,104.112
66.2994,106.282
66.3334,100.163
66.3674,103.625
66.4014,90.4646
66.4354,110.852
66.4694,118.78
66.5034,108.815
66.5374,110.622
66.5714,105.528
66.6054,101
66.6394,107.57
66.6734,112.865
66.7074,92.2302
66.7414,110.046
66.7754,99.1392
66.8094,110.826
66.8434,102.399
66.8774,106.312
66.9114,124.359
66.9454,117.925
66.9794,90.9289
67.0134,119.181
67.0474,117.35
67.0814,116.05
67.1154,106.021
67.1494,107.248
67.1834,128.526
67.2174,103.82
67.2514,104.131
67.2854,110.362
67.3194,121.331
67.3534,113.291
67.3874,102.069
67.4214,111.064
67.4554,115.447
67.4894,96.9485
67.5234,130.308
67.5574,115.534
67.5914,118.918
67.6254,125.076
67.6594,106.867
67.6934,110.593
67.7274,112.519
67.7614,99.7956
67.7954,115.865
67.8294,120.135
67.8634,115.73
67.8974,108.316
67.9314,115.061
67.9654,127.063
67.9994,108.928
68.0334,99.4279
68.0674,102.811
68.1014,109.392
68.1354,103.304
68.1694,112.685
68.2034,117.785
68.2374,122.734
68.2714,110.665
68.3054,125.628
68.3394,104.481
68.3734,112.31
68.4074,101.189
68.4414,107.76
68.4754,123.844
68.5094,129.535
68.5434,95.8799
68.5774,117.946
68.6114,102.81
68.6454,108.45
68.6794,117.944
68.7134,127.995
68.7474,102.441
68.7814,124.39
68.8154,118.873
68.8494,120.748
68.8834,108.712
68.9174,107.954
68.9514,101.485
68.9854,111.893
69.0194,112.377
69.0534,102.622
69.0874,126.226
69.1214,101
69.1554,111.814
69.1894,116.889
69.2234,119.206
69.2574,121.148
69.2914,115.371
69.3254,130.857
69.3594,99.2374
69.3934,140.468
69.4274,126.774
69.4614,150.655
69.4954,144.476
69.5294,147.054
69.5634,142.1
69.5974,153.821
69.6314,141.467
69.6654,145.577
69.6994,160.95
69.7334,138.278
69.7674,141.995
69.8014,136.606
69.8354,169.048
69.8694,152
69.9034,149.29
69.9374,156.166
69.9714,163.694
69.9884,161.038