File: herald_visualization/XRD_Plotting/Figures/Fe0p56Mn0p44F3_SuperP/Manganese Fluoride.xy
2Theta Intensity
20.0084	6925.00
20.0424	6916.00
20.0764	6907.00
20.1104	6898.00
20.1444	6889.00
20.1784	6881.00
20.2124	6872.00
20.2464	6863.00
20.2804	6855.00
20.3144	6846.00
20.3484	6837.00
20.3824	6829.00
20.4164	6820.00
20.4504	6812.00
20.4844	6803.00
20.5184	6795.00
20.5524	6786.00
20.5864	6778.00
20.6204	6769.00
20.6544	6761.00
20.6884	6753.00
20.7224	6744.00
20.7564	6736.00
20.7904	6728.00
20.8244	6720.00
20.8584	6711.00
20.8924	6703.00
20.9264	6695.00
20.9604	6687.00
20.9944	6679.00
21.0284	6671.00
21.0624	6663.00
21.0964	6655.00
21.1304	6647.00
21.1644	6639.00
21.1984	6631.00
21.2324	6623.00
21.2664	6615.00
21.3004	6608.00
21.3344	6600.00
21.3684	6592.00
21.4024	6584.00
21.4364	6577.00
21.4704	6569.00
21.5044	6561.00
21.5384	6554.00
21.5724	6546.00
21.6064	6539.00
21.6404	6531.00
21.6744	6524.00
21.7084	6516.00
21.7424	6509.00
21.7764	6501.00
21.8104	6494.00
21.8444	6487.00
21.8784	6479.00
21.9124	6472.00
21.9464	6465.00
21.9804	6458.00
22.0144	6450.00
22.0484	6443.00
22.0824	6436.00
22.1164	6429.00
22.1504	6422.00
22.1844	6416.00
22.2184	6409.00
22.2524	6402.00
22.2864	6396.00
22.3204	6390.00
22.3544	6384.00
22.3884	6378.00
22.4224	6373.00
22.4564	6369.00
22.4904	6365.00
22.5244	6362.00
22.5584	6360.00
22.5924	6359.00
22.6264	6358.00
22.6604	6358.00
22.6944	6358.00
22.7284	6358.00
22.7624	6357.00
22.7964	6354.00
22.8304	6349.00
22.8644	6342.00
22.8984	6332.00
22.9324	6321.00
22.9664	6308.00
23.0004	6295.00
23.0344	6281.00
23.0684	6268.00
23.1024	6256.00
23.1364	6244.00
23.1704	6233.00
23.2044	6223.00
23.2384	6213.00
23.2724	6205.00
23.3064	6197.00
23.3404	6189.00
23.3744	6181.00
23.4084	6174.00
23.4424	6167.00
23.4764	6160.00
23.5104	6154.00
23.5444	6147.00
23.5784	6140.00
23.6124	6134.00
23.6464	6128.00
23.6804	6121.00
23.7144	6115.00
23.7484	6109.00
23.7824	6102.00
23.8164	6096.00
23.8504	6090.00
23.8844	6084.00
23.9184	6078.00
23.9524	6072.00
23.9864	6066.00
24.0204	6060.00
24.0544	6054.00
24.0884	6048.00
24.1224	6042.00
24.1564	6036.00
24.1904	6030.00
24.2244	6024.00
24.2584	6018.00
24.2924	6012.00
24.3264	6006.00
24.3604	6001.00
24.3944	5995.00
24.4284	5989.00
24.4624	5983.00
24.4964	5978.00
24.5304	5972.00
24.5644	5966.00
24.5984	5961.00
24.6324	5955.00
24.6664	5950.00
24.7004	5944.00
24.7344	5939.00
24.7684	5933.00
24.8024	5928.00
24.8364	5922.00
24.8704	5917.00
24.9044	5911.00
24.9384	5906.00
24.9724	5900.00
25.0064	5895.00
25.0404	5890.00
25.0744	5884.00
25.1084	5879.00
25.1424	5874.00
25.1764	5868.00
25.2104	5863.00
25.2444	5858.00
25.2784	5853.00
25.3124	5847.00
25.3464	5842.00
25.3804	5837.00
25.4144	5832.00
25.4484	5827.00
25.4824	5822.00
25.5164	5817.00
25.5504	5811.00
25.5844	5806.00
25.6184	5801.00
25.6524	5796.00
25.6864	5791.00
25.7204	5786.00
25.7544	5781.00
25.7884	5776.00
25.8224	5772.00
25.8564	5767.00
25.8904	5762.00
25.9244	5757.00
25.9584	5752.00
25.9924	5747.00
26.0264	5742.00
26.0604	5738.00
26.0944	5733.00
26.1284	5728.00
26.1624	5723.00
26.1964	5719.00
26.2304	5714.00
26.2644	5709.00
26.2984	5705.00
26.3324	5700.00
26.3664	5695.00
26.4004	5691.00
26.4344	5686.00
26.4684	5682.00
26.5024	5677.00
26.5364	5673.00
26.5704	5668.00
26.6044	5664.00
26.6384	5659.00
26.6724	5655.00
26.7064	5650.00
26.7404	5646.00
26.7744	5641.00
26.8084	5637.00
26.8424	5633.00
26.8764	5628.00
26.9104	5624.00
26.9444	5620.00
26.9784	5615.00
27.0124	5611.00
27.0464	5607.00
27.0804	5603.00
27.1144	5598.00
27.1484	5594.00
27.1824	5590.00
27.2164	5586.00
27.2504	5582.00
27.2844	5577.00
27.3184	5573.00
27.3524	5569.00
27.3864	5565.00
27.4204	5561.00
27.4544	5557.00
27.4884	5553.00
27.5224	5549.00
27.5564	5545.00
27.5904	5541.00
27.6244	5537.00
27.6584	5533.00
27.6924	5529.00
27.7264	5526.00
27.7604	5522.00
27.7944	5518.00
27.8284	5514.00
27.8624	5510.00
27.8964	5507.00
27.9304	5503.00
27.9644	5499.00
27.9984	5496.00
28.0324	5492.00
28.0664	5489.00
28.1004	5485.00
28.1344	5482.00
28.1684	5478.00
28.2024	5475.00
28.2364	5472.00
28.2704	5469.00
28.3044	5466.00
28.3384	5463.00
28.3724	5460.00
28.4064	5457.00
28.4404	5455.00
28.4744	5453.00
28.5084	5452.00
28.5424	5451.00
28.5764	5451.00
28.6104	5453.00
28.6444	5455.00
28.6784	5460.00
28.7124	5465.00
28.7464	5473.00
28.7804	5482.00
28.8144	5493.00
28.8484	5505.00
28.8824	5517.00
28.9164	5528.00
28.9504	5536.00
28.9844	5540.00
29.0184	5540.00
29.0524	5533.00
29.0864	5522.00
29.1204	5507.00
29.1544	5490.00
29.1884	5471.00
29.2224	5453.00
29.2564	5435.00
29.2904	5419.00
29.3244	5405.00
29.3584	5392.00
29.3924	5381.00
29.4264	5372.00
29.4604	5364.00
29.4944	5357.00
29.5284	5351.00
29.5624	5345.00
29.5964	5340.00
29.6304	5336.00
29.6644	5332.00
29.6984	5328.00
29.7324	5324.00
29.7664	5320.00
29.8004	5317.00
29.8344	5313.00
29.8684	5310.00
29.9024	5306.00
29.9364	5303.00
29.9704	5300.00
30.0044	5296.00
30.0384	5293.00
30.0724	5290.00
30.1064	5287.00
30.1404	5284.00
30.1744	5281.00
30.2084	5278.00
30.2424	5275.00
30.2764	5272.00
30.3104	5269.00
30.3444	5266.00
30.3784	5263.00
30.4124	5260.00
30.4464	5257.00
30.4804	5254.00
30.5144	5251.00
30.5484	5249.00
30.5824	5246.00
30.6164	5243.00
30.6504	5240.00
30.6844	5237.00
30.7184	5235.00
30.7524	5232.00
30.7864	5229.00
30.8204	5227.00
30.8544	5224.00
30.8884	5221.00
30.9224	5219.00
30.9564	5216.00
30.9904	5214.00
31.0244	5211.00
31.0584	5209.00
31.0924	5206.00
31.1264	5204.00
31.1604	5201.00
31.1944	5199.00
31.2284	5197.00
31.2624	5195.00
31.2964	5192.00
31.3304	5190.00
31.3644	5188.00
31.3984	5186.00
31.4324	5184.00
31.4664	5181.00
31.5004	5179.00
31.5344	5176.00
31.5684	5174.00
31.6024	5171.00
31.6364	5168.00
31.6704	5166.00
31.7044	5163.00
31.7384	5160.00
31.7724	5158.00
31.8064	5155.00
31.8404	5153.00
31.8744	5150.00
31.9084	5148.00
31.9424	5146.00
31.9764	5143.00
32.0104	5141.00
32.0444	5139.00
32.0784	5137.00
32.1124	5134.00
32.1464	5132.00
32.1804	5130.00
32.2144	5128.00
32.2484	5126.00
32.2824	5124.00
32.3164	5121.00
32.3504	5119.00
32.3844	5117.00
32.4184	5115.00
32.4524	5113.00
32.4864	5111.00
32.5204	5109.00
32.5544	5107.00
32.5884	5105.00
32.6224	5103.00
32.6564	5101.00
32.6904	5099.00
32.7244	5097.00
32.7584	5095.00
32.7924	5093.00
32.8264	5091.00
32.8604	5089.00
32.8944	5087.00
32.9284	5085.00
32.9624	5083.00
32.9964	5081.00
33.0304	5079.00
33.0644	5078.00
33.0984	5076.00
33.1324	5074.00
33.1664	5072.00
33.2004	5070.00
33.2344	5069.00
33.2684	5067.00
33.3024	5065.00
33.3364	5064.00
33.3704	5062.00
33.4044	5061.00
33.4384	5059.00
33.4724	5058.00
33.5064	5056.00
33.5404	5055.00
33.5744	5053.00
33.6084	5052.00
33.6424	5051.00
33.6764	5049.00
33.7104	5048.00
33.7444	5046.00
33.7784	5044.00
33.8124	5042.00
33.8464	5040.00
33.8804	5038.00
33.9144	5036.00
33.9484	5034.00
33.9824	5032.00
34.0164	5030.00
34.0504	5029.00
34.0844	5027.00
34.1184	5025.00
34.1524	5023.00
34.1864	5022.00
34.2204	5020.00
34.2544	5019.00
34.2884	5017.00
34.3224	5016.00
34.3564	5014.00
34.3904	5013.00
34.4244	5011.00
34.4584	5010.00
34.4924	5008.00
34.5264	5007.00
34.5604	5005.00
34.5944	5004.00
34.6284	5002.00
34.6624	5001.00
34.6964	5000.00
34.7304	4998.00
34.7644	4997.00
34.7984	4996.00
34.8324	4994.00
34.8664	4993.00
34.9004	4992.00
34.9344	4990.00
34.9684	4989.00
35.0024	4988.00
35.0364	4987.00
35.0704	4985.00
35.1044	4984.00
35.1384	4983.00
35.1724	4982.00
35.2064	4981.00
35.2404	4980.00
35.2744	4979.00
35.3084	4978.00
35.3424	4977.00
35.3764	4977.00
35.4104	4976.00
35.4444	4976.00
35.4784	4976.00
35.5124	4975.00
35.5464	4975.00
35.5804	4975.00
35.6144	4975.00
35.6484	4974.00
35.6824	4973.00
35.7164	4972.00
35.7504	4970.00
35.7844	4969.00
35.8184	4967.00
35.8524	4965.00
35.8864	4962.00
35.9204	4960.00
35.9544	4959.00
35.9884	4957.00
36.0224	4955.00
36.0564	4953.00
36.0904	4952.00
36.1244	4951.00
36.1584	4949.00
36.1924	4948.00
36.2264	4947.00
36.2604	4946.00
36.2944	4945.00
36.3284	4944.00
36.3624	4943.00
36.3964	4942.00
36.4304	4941.00
36.4644	4940.00
36.4984	4939.00
36.5324	4938.00
36.5664	4937.00
36.6004	4936.00
36.6344	4935.00
36.6684	4934.00
36.7024	4933.00
36.7364	4932.00
36.7704	4931.00
36.8044	4930.00
36.8384	4929.00
36.8724	4929.00
36.9064	4928.00
36.9404	4927.00
36.9744	4926.00
37.0084	4925.00
37.0424	4924.00
37.0764	4924.00
37.1104	4923.00
37.1444	4922.00
37.1784	4921.00
37.2124	4921.00
37.2464	4920.00
37.2804	4919.00
37.3144	4918.00
37.3484	4918.00
37.3824	4917.00
37.4164	4916.00
37.4504	4915.00
37.4844	4915.00
37.5184	4914.00
37.5524	4913.00
37.5864	4913.00
37.6204	4912.00
37.6544	4911.00
37.6884	4911.00
37.7224	4910.00
37.7564	4910.00
37.7904	4909.00
37.8244	4909.00
37.8584	4908.00
37.8924	4908.00
37.9264	4908.00
37.9604	4908.00
37.9944	4908.00
38.0284	4908.00
38.0624	4909.00
38.0964	4909.00
38.1304	4910.00
38.1644	4911.00
38.1984	4911.00
38.2324	4912.00
38.2664	4912.00
38.3004	4912.00
38.3344	4912.00
38.3684	4911.00
38.4024	4909.00
38.4364	4908.00
38.4704	4906.00
38.5044	4904.00
38.5384	4903.00
38.5724	4901.00
38.6064	4900.00
38.6404	4899.00
38.6744	4898.00
38.7084	4897.00
38.7424	4896.00
38.7764	4896.00
38.8104	4896.00
38.8444	4896.00
38.8784	4897.00
38.9124	4897.00
38.9464	4898.00
38.9804	4899.00
39.0144	4900.00
39.0484	4902.00
39.0824	4903.00
39.1164	4903.00
39.1504	4904.00
39.1844	4904.00
39.2184	4903.00
39.2524	4902.00
39.2864	4900.00
39.3204	4898.00
39.3544	4896.00
39.3884	4894.00
39.4224	4892.00
39.4564	4890.00
39.4904	4888.00
39.5244	4887.00
39.5584	4886.00
39.5924	4885.00
39.6264	4884.00
39.6604	4883.00
39.6944	4882.00
39.7284	4882.00
39.7624	4881.00
39.7964	4881.00
39.8304	4880.00
39.8644	4880.00
39.8984	4880.00
39.9324	4879.00
39.9664	4879.00
40.0004	4879.00
40.0344	4878.00
40.0684	4878.00
40.1024	4878.00
40.1364	4878.00
40.1704	4877.00
40.2044	4877.00
40.2384	4877.00
40.2724	4876.00
40.3064	4876.00
40.3404	4876.00
40.3744	4876.00
40.4084	4875.00
40.4424	4875.00
40.4764	4875.00
40.5104	4875.00
40.5444	4874.00
40.5784	4874.00
40.6124	4874.00
40.6464	4874.00
40.6804	4873.00
40.7144	4873.00
40.7484	4873.00
40.7824	4873.00
40.8164	4873.00
40.8504	4873.00
40.8844	4873.00
40.9184	4873.00
40.9524	4873.00
40.9864	4873.00
41.0204	4873.00
41.0544	4873.00
41.0884	4873.00
41.1224	4873.00
41.1564	4874.00
41.1904	4874.00
41.2244	4875.00
41.2584	4877.00
41.2924	4878.00
41.3264	4880.00
41.3604	4882.00
41.3944	4884.00
41.4284	4887.00
41.4624	4890.00
41.4964	4892.00
41.5304	4895.00
41.5644	4897.00
41.5984	4898.00
41.6324	4898.00
41.6664	4897.00
41.7004	4896.00
41.7344	4893.00
41.7684	4891.00
41.8024	4888.00
41.8364	4885.00
41.8704	4882.00
41.9044	4880.00
41.9384	4878.00
41.9724	4876.00
42.0064	4874.00
42.0404	4873.00
42.0744	4872.00
42.1084	4871.00
42.1424	4871.00
42.1764	4870.00
42.2104	4870.00
42.2444	4870.00
42.2784	4870.00
42.3124	4870.00
42.3464	4870.00
42.3804	4870.00
42.4144	4870.00
42.4484	4870.00
42.4824	4871.00
42.5164	4871.00
42.5504	4872.00
42.5844	4873.00
42.6184	4874.00
42.6524	4875.00
42.6864	4876.00
42.7204	4878.00
42.7544	4879.00
42.7884	4880.00
42.8224	4881.00
42.8564	4882.00
42.8904	4882.00
42.9244	4881.00
42.9584	4881.00
42.9924	4880.00
43.0264	4878.00
43.0604	4877.00
43.0944	4876.00
43.1284	4874.00
43.1624	4873.00
43.1964	4872.00
43.2304	4871.00
43.2644	4871.00
43.2984	4870.00
43.3324	4870.00
43.3664	4869.00
43.4004	4869.00
43.4344	4869.00
43.4684	4869.00
43.5024	4869.00
43.5364	4869.00
43.5704	4869.00
43.6044	4869.00
43.6384	4869.00
43.6724	4869.00
43.7064	4869.00
43.7404	4869.00
43.7744	4869.00
43.8084	4869.00
43.8424	4869.00
43.8764	4869.00
43.9104	4869.00
43.9444	4869.00
43.9784	4869.00
44.0124	4869.00
44.0464	4869.00
44.0804	4869.00
44.1144	4869.00
44.1484	4869.00
44.1824	4870.00
44.2164	4870.00
44.2504	4870.00
44.2844	4870.00
44.3184	4870.00
44.3524	4870.00
44.3864	4870.00
44.4204	4870.00
44.4544	4870.00
44.4884	4870.00
44.5224	4871.00
44.5564	4871.00
44.5904	4871.00
44.6244	4871.00
44.6584	4871.00
44.6924	4871.00
44.7264	4871.00
44.7604	4871.00
44.7944	4871.00
44.8284	4872.00
44.8624	4872.00
44.8964	4872.00
44.9304	4872.00
44.9644	4872.00
44.9984	4872.00
45.0324	4872.00
45.0664	4872.00
45.1004	4873.00
45.1344	4873.00
45.1684	4873.00
45.2024	4873.00
45.2364	4873.00
45.2704	4873.00
45.3044	4873.00
45.3384	4874.00
45.3724	4874.00
45.4064	4874.00
45.4404	4874.00
45.4744	4874.00
45.5084	4874.00
45.5424	4874.00
45.5764	4875.00
45.6104	4875.00
45.6444	4875.00
45.6784	4875.00
45.7124	4875.00
45.7464	4875.00
45.7804	4876.00
45.8144	4876.00
45.8484	4876.00
45.8824	4876.00
45.9164	4876.00
45.9504	4876.00
45.9844	4877.00
46.0184	4877.00
46.0524	4877.00
46.0864	4877.00
46.1204	4877.00
46.1544	4878.00
46.1884	4878.00
46.2224	4878.00
46.2564	4878.00
46.2904	4879.00
46.3244	4879.00
46.3584	4879.00
46.3924	4879.00
46.4264	4880.00
46.4604	4880.00
46.4944	4881.00
46.5284	4881.00
46.5624	4882.00
46.5964	4883.00
46.6304	4884.00
46.6644	4885.00
46.6984	4886.00
46.7324	4887.00
46.7664	4888.00
46.8004	4888.00
46.8344	4889.00
46.8684	4890.00
46.9024	4890.00
46.9364	4890.00
46.9704	4889.00
47.0044	4889.00
47.0384	4888.00
47.0724	4888.00
47.1064	4887.00
47.1404	4886.00
47.1744	4886.00
47.2084	4885.00
47.2424	4885.00
47.2764	4885.00
47.3104	4885.00
47.3444	4885.00
47.3784	4885.00
47.4124	4885.00
47.4464	4885.00
47.4804	4885.00
47.5144	4885.00
47.5484	4885.00
47.5824	4886.00
47.6164	4886.00
47.6504	4886.00
47.6844	4887.00
47.7184	4887.00
47.7524	4887.00
47.7864	4888.00
47.8204	4888.00
47.8544	4889.00
47.8884	4889.00
47.9224	4890.00
47.9564	4891.00
47.9904	4893.00
48.0244	4895.00
48.0584	4897.00
48.0924	4899.00
48.1264	4902.00
48.1604	4906.00
48.1944	4909.00
48.2284	4913.00
48.2624	4917.00
48.2964	4921.00
48.3304	4924.00
48.3644	4926.00
48.3984	4927.00
48.4324	4927.00
48.4664	4926.00
48.5004	4923.00
48.5344	4920.00
48.5684	4917.00
48.6024	4913.00
48.6364	4910.00
48.6704	4907.00
48.7044	4904.00
48.7384	4901.00
48.7724	4899.00
48.8064	4898.00
48.8404	4896.00
48.8744	4895.00
48.9084	4894.00
48.9424	4894.00
48.9764	4894.00
49.0104	4893.00
49.0444	4893.00
49.0784	4893.00
49.1124	4893.00
49.1464	4893.00
49.1804	4893.00
49.2144	4893.00
49.2484	4893.00
49.2824	4893.00
49.3164	4893.00
49.3504	4893.00
49.3844	4893.00
49.4184	4894.00
49.4524	4894.00
49.4864	4894.00
49.5204	4894.00
49.5544	4895.00
49.5884	4895.00
49.6224	4895.00
49.6564	4896.00
49.6904	4896.00
49.7244	4897.00
49.7584	4898.00
49.7924	4898.00
49.8264	4899.00
49.8604	4900.00
49.8944	4901.00
49.9284	4902.00
49.9624	4903.00
49.9964	4905.00
50.0304	4906.00
50.0644	4907.00
50.0984	4909.00
50.1324	4911.00
50.1664	4913.00
50.2004	4916.00
50.2344	4920.00
50.2684	4924.00
50.3024	4928.00
50.3364	4933.00
50.3704	4937.00
50.4044	4941.00
50.4384	4944.00
50.4724	4946.00
50.5064	4946.00
50.5404	4944.00
50.5744	4941.00
50.6084	4938.00
50.6424	4933.00
50.6764	4928.00
50.7104	4924.00
50.7444	4919.00
50.7784	4915.00
50.8124	4912.00
50.8464	4909.00
50.8804	4906.00
50.9144	4904.00
50.9484	4903.00
50.9824	4902.00
51.0164	4901.00
51.0504	4900.00
51.0844	4900.00
51.1184	4900.00
51.1524	4899.00
51.1864	4899.00
51.2204	4899.00
51.2544	4899.00
51.2884	4899.00
51.3224	4899.00
51.3564	4899.00
51.3904	4899.00
51.4244	4898.00
51.4584	4898.00
51.4924	4898.00
51.5264	4898.00
51.5604	4897.00
51.5944	4897.00
51.6284	4897.00
51.6624	4897.00
51.6964	4897.00
51.7304	4896.00
51.7644	4896.00
51.7984	4896.00
51.8324	4896.00
51.8664	4896.00
51.9004	4896.00
51.9344	4896.00
51.9684	4896.00
52.0024	4896.00
52.0364	4896.00
52.0704	4896.00
52.1044	4895.00
52.1384	4895.00
52.1724	4895.00
52.2064	4895.00
52.2404	4895.00
52.2744	4895.00
52.3084	4895.00
52.3424	4895.00
52.3764	4895.00
52.4104	4895.00
52.4444	4895.00
52.4784	4895.00
52.5124	4895.00
52.5464	4895.00
52.5804	4895.00
52.6144	4895.00
52.6484	4895.00
52.6824	4895.00
52.7164	4895.00
52.7504	4895.00
52.7844	4895.00
52.8184	4894.00
52.8524	4894.00
52.8864	4894.00
52.9204	4894.00
52.9544	4894.00
52.9884	4894.00
53.0224	4894.00
53.0564	4894.00
53.0904	4893.00
53.1244	4893.00
53.1584	4893.00
53.1924	4893.00
53.2264	4893.00
53.2604	4893.00
53.2944	4893.00
53.3284	4893.00
53.3624	4893.00
53.3964	4893.00
53.4304	4893.00
53.4644	4892.00
53.4984	4892.00
53.5324	4892.00
53.5664	4892.00
53.6004	4892.00
53.6344	4892.00
53.6684	4892.00
53.7024	4892.00
53.7364	4892.00
53.7704	4892.00
53.8044	4892.00
53.8384	4892.00
53.8724	4892.00
53.9064	4893.00
53.9404	4893.00
53.9744	4894.00
54.0084	4894.00
54.0424	4895.00
54.0764	4896.00
54.1104	4897.00
54.1444	4899.00
54.1784	4900.00
54.2124	4902.00
54.2464	4903.00
54.2804	4905.00
54.3144	4906.00
54.3484	4907.00
54.3824	4908.00
54.4164	4909.00
54.4504	4909.00
54.4844	4910.00
54.5184	4910.00
54.5524	4911.00
54.5864	4912.00
54.6204	4912.00
54.6544	4912.00
54.6884	4911.00
54.7224	4910.00
54.7564	4909.00
54.7904	4907.00
54.8244	4905.00
54.8584	4902.00
54.8924	4900.00
54.9264	4897.00
54.9604	4895.00
54.9944	4893.00
55.0284	4891.00
55.0624	4890.00
55.0964	4888.00
55.1304	4887.00
55.1644	4886.00
55.1984	4885.00
55.2324	4884.00
55.2664	4884.00
55.3004	4883.00
55.3344	4883.00
55.3684	4882.00
55.4024	4882.00
55.4364	4881.00
55.4704	4881.00
55.5044	4881.00
55.5384	4880.00
55.5724	4880.00
55.6064	4880.00
55.6404	4879.00
55.6744	4879.00
55.7084	4879.00
55.7424	4878.00
55.7764	4878.00
55.8104	4878.00
55.8444	4877.00
55.8784	4877.00
55.9124	4877.00
55.9464	4876.00
55.9804	4876.00
56.0144	4876.00
56.0484	4875.00
56.0824	4875.00
56.1164	4875.00
56.1504	4874.00
56.1844	4874.00
56.2184	4874.00
56.2524	4873.00
56.2864	4873.00
56.3204	4873.00
56.3544	4872.00
56.3884	4872.00
56.4224	4871.00
56.4564	4871.00
56.4904	4871.00
56.5244	4870.00
56.5584	4870.00
56.5924	4870.00
56.6264	4869.00
56.6604	4869.00
56.6944	4869.00
56.7284	4868.00
56.7624	4868.00
56.7964	4867.00
56.8304	4867.00
56.8644	4867.00
56.8984	4866.00
56.9324	4866.00
56.9664	4866.00
57.0004	4865.00
57.0344	4865.00
57.0684	4864.00
57.1024	4864.00
57.1364	4864.00
57.1704	4863.00
57.2044	4863.00
57.2384	4862.00
57.2724	4862.00
57.3064	4862.00
57.3404	4861.00
57.3744	4861.00
57.4084	4860.00
57.4424	4860.00
57.4764	4860.00
57.5104	4859.00
57.5444	4859.00
57.5784	4858.00
57.6124	4858.00
57.6464	4858.00
57.6804	4857.00
57.7144	4857.00
57.7484	4856.00
57.7824	4856.00
57.8164	4855.00
57.8504	4855.00
57.8844	4855.00
57.9184	4854.00
57.9524	4854.00
57.9864	4853.00
58.0204	4853.00
58.0544	4852.00
58.0884	4852.00
58.1224	4851.00
58.1564	4851.00
58.1904	4851.00
58.2244	4850.00
58.2584	4850.00
58.2924	4849.00
58.3264	4849.00
58.3604	4848.00
58.3944	4848.00
58.4284	4847.00
58.4624	4847.00
58.4964	4846.00
58.5304	4846.00
58.5644	4845.00
58.5984	4845.00
58.6324	4844.00
58.6664	4844.00
58.7004	4844.00
58.7344	4843.00
58.7684	4843.00
58.8024	4842.00
58.8364	4842.00
58.8704	4841.00
58.9044	4841.00
58.9384	4840.00
58.9724	4840.00
59.0064	4839.00
59.0404	4839.00
59.0744	4838.00
59.1084	4838.00
59.1424	4837.00
59.1764	4837.00
59.2104	4836.00
59.2444	4836.00
59.2784	4835.00
59.3124	4835.00
59.3464	4834.00
59.3804	4834.00
59.4144	4833.00
59.4484	4833.00
59.4824	4832.00
59.5164	4832.00
59.5504	4831.00
59.5844	4831.00
59.6184	4831.00
59.6524	4830.00
59.6864	4830.00
59.7204	4830.00
59.7544	4829.00
59.7884	4829.00
59.8224	4829.00
59.8564	4829.00
59.8904	4829.00
59.9244	4829.00
59.9584	4830.00
59.9924	4831.00
60.0264	4831.00
60.0604	4832.00
60.0944	4833.00
60.1284	4834.00
60.1624	4835.00
60.1964	4836.00
60.2304	4836.00
60.2644	4836.00
60.2984	4835.00
60.3324	4834.00
60.3664	4833.00
60.4004	4831.00
60.4344	4829.00
60.4684	4827.00
60.5024	4825.00
60.5364	4823.00
60.5704	4822.00
60.6044	4820.00
60.6384	4818.00
60.6724	4817.00
60.7064	4816.00
60.7404	4815.00
60.7744	4814.00
60.8084	4813.00
60.8424	4812.00
60.8764	4811.00
60.9104	4810.00
60.9444	4810.00
60.9784	4809.00
61.0124	4808.00
61.0464	4808.00
61.0804	4807.00
61.1144	4807.00
61.1484	4807.00
61.1824	4806.00
61.2164	4806.00
61.2504	4805.00
61.2844	4805.00
61.3184	4805.00
61.3524	4804.00
61.3864	4804.00
61.4204	4803.00
61.4544	4803.00
61.4884	4802.00
61.5224	4801.00
61.5564	4801.00
61.5904	4800.00
61.6244	4799.00
61.6584	4798.00
61.6924	4797.00
61.7264	4797.00
61.7604	4796.00
61.7944	4795.00
61.8284	4794.00
61.8624	4794.00
61.8964	4793.00
61.9304	4792.00
61.9644	4792.00
61.9984	4791.00
62.0324	4790.00
62.0664	4790.00
62.1004	4789.00
62.1344	4789.00
62.1684	4788.00
62.2024	4788.00
62.2364	4787.00
62.2704	4786.00
62.3044	4786.00
62.3384	4785.00
62.3724	4785.00
62.4064	4784.00
62.4404	4784.00
62.4744	4783.00
62.5084	4783.00
62.5424	4782.00
62.5764	4781.00
62.6104	4781.00
62.6444	4780.00
62.6784	4780.00
62.7124	4779.00
62.7464	4779.00
62.7804	4779.00
62.8144	4778.00
62.8484	4778.00
62.8824	4778.00
62.9164	4777.00
62.9504	4777.00
62.9844	4777.00
63.0184	4777.00
63.0524	4777.00
63.0864	4777.00
63.1204	4777.00
63.1544	4776.00
63.1884	4776.00
63.2224	4776.00
63.2564	4775.00
63.2904	4774.00
63.3244	4774.00
63.3584	4773.00
63.3924	4772.00
63.4264	4771.00
63.4604	4770.00
63.4944	4769.00
63.5284	4768.00
63.5624	4767.00
63.5964	4766.00
63.6304	4766.00
63.6644	4765.00
63.6984	4765.00
63.7324	4764.00
63.7664	4764.00
63.8004	4763.00
63.8344	4763.00
63.8684	4763.00
63.9024	4762.00
63.9364	4762.00
63.9704	4762.00
64.0044	4762.00
64.0384	4762.00
64.0724	4762.00
64.1064	4762.00
64.1404	4761.00
64.1744	4761.00
64.2084	4760.00
64.2424	4760.00
64.2764	4759.00
64.3104	4758.00
64.3444	4757.00
64.3784	4756.00
64.4124	4755.00
64.4464	4755.00
64.4804	4754.00
64.5144	4753.00
64.5484	4752.00
64.5824	4752.00
64.6164	4751.00
64.6504	4750.00
64.6844	4750.00
64.7184	4749.00
64.7524	4749.00
64.7864	4748.00
64.8204	4748.00
64.8544	4748.00
64.8884	4747.00
64.9224	4747.00
64.9564	4746.00
64.9904	4746.00
65.0244	4745.00
65.0584	4745.00
65.0924	4745.00
65.1264	4744.00
65.1604	4744.00
65.1944	4744.00
65.2284	4743.00
65.2624	4743.00
65.2964	4743.00
65.3304	4742.00
65.3644	4742.00
65.3984	4742.00
65.4324	4742.00
65.4664	4742.00
65.5004	4742.00
65.5344	4742.00
65.5684	4742.00
65.6024	4743.00
65.6364	4743.00
65.6704	4744.00
65.7044	4745.00
65.7384	4747.00
65.7724	4748.00
65.8064	4750.00
65.8404	4751.00
65.8744	4753.00
65.9084	4754.00
65.9424	4755.00
65.9764	4756.00
66.0104	4756.00
66.0444	4755.00
66.0784	4754.00
66.1124	4753.00
66.1464	4751.00
66.1804	4750.00
66.2144	4748.00
66.2484	4746.00
66.2824	4744.00
66.3164	4742.00
66.3504	4740.00
66.3844	4739.00
66.4184	4738.00
66.4524	4737.00
66.4864	4737.00
66.5204	4737.00
66.5544	4737.00
66.5884	4737.00
66.6224	4737.00
66.6564	4738.00
66.6904	4738.00
66.7244	4739.00
66.7584	4739.00
66.7924	4739.00
66.8264	4739.00
66.8604	4739.00
66.8944	4738.00
66.9284	4738.00
66.9624	4737.00
66.9964	4736.00
67.0304	4735.00
67.0644	4734.00
67.0984	4733.00
67.1324	4732.00
67.1664	4731.00
67.2004	4730.00
67.2344	4729.00
67.2684	4729.00
67.3024	4728.00
67.3364	4728.00
67.3704	4728.00
67.4044	4727.00
67.4384	4727.00
67.4724	4727.00
67.5064	4727.00
67.5404	4727.00
67.5744	4727.00
67.6084	4726.00
67.6424	4726.00
67.6764	4726.00
67.7104	4726.00
67.7444	4726.00
67.7784	4726.00
67.8124	4726.00
67.8464	4726.00
67.8804	4726.00
67.9144	4726.00
67.9484	4726.00
67.9824	4726.00
68.0164	4726.00
68.0504	4726.00
68.0844	4726.00
68.1184	4726.00
68.1524	4727.00
68.1864	4727.00
68.2204	4727.00
68.2544	4727.00
68.2884	4727.00
68.3224	4727.00
68.3564	4727.00
68.3904	4727.00
68.4244	4728.00
68.4584	4728.00
68.4924	4728.00
68.5264	4728.00
68.5604	4728.00
68.5944	4728.00
68.6284	4729.00
68.6624	4729.00
68.6964	4729.00
68.7304	4729.00
68.7644	4730.00
68.7984	4730.00
68.8324	4730.00
68.8664	4730.00
68.9004	4731.00
68.9344	4731.00
68.9684	4731.00
69.0024	4731.00
69.0364	4732.00
69.0704	4732.00
69.1044	4732.00
69.1384	4733.00
69.1724	4733.00
69.2064	4734.00
69.2404	4734.00
69.2744	4734.00
69.3084	4735.00
69.3424	4735.00
69.3764	4736.00
69.4104	4736.00
69.4444	4736.00
69.4784	4737.00
69.5124	4737.00
69.5464	4738.00
69.5804	4738.00
69.6144	4739.00
69.6484	4739.00
69.6824	4740.00
69.7164	4740.00
69.7504	4741.00
69.7844	4742.00
69.8184	4742.00
69.8524	4743.00
69.8864	4743.00
69.9204	4744.00
69.9544	4744.00
69.9884	4745.00