File: herald_visualization/Delia_Scripts/FeF3_1to1_KS6Lgraphite/240828-FeF3_1to1_KS6Lgraphite-100min_milled-20-70deg_40min.csv
2Theta,Intensity
20.0254,6562.04
20.0594,6661.65
20.0934,6726.37
20.1274,6654.46
20.1614,6629.21
20.1954,6646.76
20.2294,6515.23
20.2634,6726.16
20.2974,6757.83
20.3314,6563.81
20.3654,6548.58
20.3994,6591.22
20.4334,6482.81
20.4674,6434.64
20.5014,6407.12
20.5354,6422.37
20.5694,6528.79
20.6034,6380.09
20.6374,6390.53
20.6714,6308.77
20.7054,6367.72
20.7394,6350.47
20.7734,6243.8
20.8074,6307.63
20.8414,6261.16
20.8754,6183.32
20.9094,6211.83
20.9434,6238.13
20.9774,6306.8
21.0114,6257.14
21.0454,6204.25
21.0794,6173.3
21.1134,6127.87
21.1474,6373.89
21.1814,6209.67
21.2154,6063.99
21.2494,6149.8
21.2834,6200.06
21.3174,6225.35
21.3514,6047.87
21.3854,6138.9
21.4194,6124.94
21.4534,6063.43
21.4874,6063.39
21.5214,6018.75
21.5554,6008.22
21.5894,5898.98
21.6234,6013.82
21.6574,5917.62
21.6914,5894.81
21.7254,5903.4
21.7594,5919.14
21.7934,5898.27
21.8274,5879.98
21.8614,5943.21
21.8954,5807.34
21.9294,6050.05
21.9634,5896.57
21.9974,5836.14
22.0314,5771.98
22.0654,5681.12
22.0994,5850.11
22.1334,5873.89
22.1674,5784.83
22.2014,5802.47
22.2354,5744.88
22.2694,5711.37
22.3034,5712.24
22.3374,5781.81
22.3714,5642.91
22.4054,5699.01
22.4394,5642.12
22.4734,5700.04
22.5074,5650.31
22.5414,5680.56
22.5754,5611.1
22.6094,5711.54
22.6434,5737.79
22.6774,5664.56
22.7114,5795.78
22.7454,5634.55
22.7794,5631.03
22.8134,5730.5
22.8474,5583.84
22.8814,5591.09
22.9154,5786.23
22.9494,5725.46
22.9834,5750.75
23.0174,5721.91
23.0514,5808.19
23.0854,5784.91
23.1194,5800.63
23.1534,5832.56
23.1874,5935.91
23.2214,5995.94
23.2554,6125.2
23.2894,6017.85
23.3234,6160.52
23.3574,6216.79
23.3914,6374.67
23.4254,6420.64
23.4594,6696.71
23.4934,6877.89
23.5274,7086.94
23.5614,7275.82
23.5954,7487.46
23.6294,7733.1
23.6634,7987.23
23.6974,8283.05
23.7314,8587.22
23.7654,8914
23.7994,9098.99
23.8334,9005.43
23.8674,9140.77
23.9014,9184.6
23.9354,9069.26
23.9694,8991.45
24.0034,8733.46
24.0374,8369.9
24.0714,8023.57
24.1054,7954.77
24.1394,7567.67
24.1734,7325.94
24.2074,7148.25
24.2414,6769.21
24.2754,6703.26
24.3094,6606.77
24.3434,6304.73
24.3774,6217.69
24.4114,6017.12
24.4454,5888.07
24.4794,5813.99
24.5134,5770.6
24.5474,5714.41
24.5814,5508.48
24.6154,5578.3
24.6494,5531.9
24.6834,5371.53
24.7174,5388.02
24.7514,5481.48
24.7854,5202.61
24.8194,5425.88
24.8534,5363.58
24.8874,5122.79
24.9214,5243.65
24.9554,5143.56
24.9894,5288.27
25.0234,5152.7
25.0574,5104.44
25.0914,5208.71
25.1254,5220.78
25.1594,5010.64
25.1934,5012.26
25.2274,5139.26
25.2614,4990.75
25.2954,5007.71
25.3294,5072.25
25.3634,5022.98
25.3974,4898.34
25.4314,5003.04
25.4654,5061.58
25.4994,5112.65
25.5334,4986.7
25.5674,4976.6
25.6014,4952.9
25.6354,4947.71
25.6694,4959.29
25.7034,4940.88
25.7374,4923.67
25.7714,4927.86
25.8054,4841.27
25.8394,4952.04
25.8734,4901.61
25.9074,5086.12
25.9414,5085
25.9754,4993.14
26.0094,4930.31
26.0434,4876.73
26.0774,4888.58
26.1114,4864.99
26.1454,4948.31
26.1794,4919.13
26.2134,4925.03
26.2474,4888.41
26.2814,4833.38
26.3154,4858.28
26.3494,4819.98
26.3834,4916.32
26.4174,4899.78
26.4514,4835.63
26.4854,4857.68
26.5194,4971.09
26.5534,4923.54
26.5874,4904.07
26.6214,4856.8
26.6554,4939.02
26.6894,4862.39
26.7234,4825.12
26.7574,4881.19
26.7914,4833.6
26.8254,4748.1
26.8594,4872.95
26.8934,4793.31
26.9274,4842.67
26.9614,4734.71
26.9954,4831.58
27.0294,4705.75
27.0634,4801.53
27.0974,4849.35
27.1314,4904.86
27.1654,4798.23
27.1994,4952
27.2334,4759.59
27.2674,4817.3
27.3014,4806.96
27.3354,4788.69
27.3694,4778.19
27.4034,4783
27.4374,4688.78
27.4714,4772.91
27.5054,4757.11
27.5394,4801.65
27.5734,4789.1
27.6074,4767.6
27.6414,4762.85
27.6754,4654.79
27.7094,4679.02
27.7434,4794.66
27.7774,4741.23
27.8114,4749.06
27.8454,4735.65
27.8794,4685
27.9134,4664.26
27.9474,4868.26
27.9814,4596.83
28.0154,4653.19
28.0494,4724.86
28.0834,4671.86
28.1174,4661.17
28.1514,4511.48
28.1854,4689.12
28.2194,4647.55
28.2534,4670.06
28.2874,4707.32
28.3214,4647.45
28.3554,4717.78
28.3894,4689.04
28.4234,4646.32
28.4574,4601.48
28.4914,4670.86
28.5254,4586.04
28.5594,4666.76
28.5934,4637.05
28.6274,4587.05
28.6614,4638.25
28.6954,4598.45
28.7294,4515.67
28.7634,4596.47
28.7974,4497.98
28.8314,4696.84
28.8654,4468.22
28.8994,4571.9
28.9334,4493.14
28.9674,4527.32
29.0014,4570.38
29.0354,4441.26
29.0694,4594.34
29.1034,4561.85
29.1374,4588.87
29.1714,4567.25
29.2054,4479.22
29.2394,4505.78
29.2734,4553.24
29.3074,4446.27
29.3414,4542.03
29.3754,4550.04
29.4094,4557.45
29.4434,4498.22
29.4774,4536.16
29.5114,4550.44
29.5454,4427.82
29.5794,4537
29.6134,4426
29.6474,4491.83
29.6814,4458.48
29.7154,4473.23
29.7494,4500.01
29.7834,4562.72
29.8174,4477.64
29.8514,4463.78
29.8854,4532.17
29.9194,4414.92
29.9534,4540.06
29.9874,4470.75
30.0214,4501.65
30.0554,4413.87
30.0894,4485.4
30.1234,4421.32
30.1574,4388.23
30.1914,4304.35
30.2254,4393.2
30.2594,4379.22
30.2934,4421.86
30.3274,4406.52
30.3614,4394
30.3954,4385.08
30.4294,4355.5
30.4634,4432.2
30.4974,4381.67
30.5314,4404.48
30.5654,4339.56
30.5994,4419.76
30.6334,4447.78
30.6674,4403.13
30.7014,4393.49
30.7354,4357.36
30.7694,4386.87
30.8034,4381.93
30.8374,4363.67
30.8714,4300.96
30.9054,4495.11
30.9394,4361.82
30.9734,4406.6
31.0074,4385.24
31.0414,4279.01
31.0754,4398.98
31.1094,4357.45
31.1434,4260.48
31.1774,4277.59
31.2114,4328.67
31.2454,4305.84
31.2794,4329.21
31.3134,4264.65
31.3474,4197.66
31.3814,4292.18
31.4154,4246.82
31.4494,4282.47
31.4834,4299.4
31.5174,4369.82
31.5514,4289.95
31.5854,4309.71
31.6194,4180.01
31.6534,4299.63
31.6874,4309.65
31.7214,4351.55
31.7554,4259.85
31.7894,4339.15
31.8234,4253.37
31.8574,4353.28
31.8914,4387.77
31.9254,4425.17
31.9594,4286
31.9934,4301.79
32.0274,4293.44
32.0614,4278.49
32.0954,4196.47
32.1294,4227.84
32.1634,4312.79
32.1974,4289.43
32.2314,4235.18
32.2654,4184.72
32.2994,4250.29
32.3334,4350.79
32.3674,4183.65
32.4014,4267.65
32.4354,4225.33
32.4694,4273.52
32.5034,4200.04
32.5374,4298.4
32.5714,4309
32.6054,4254.77
32.6394,4226.78
32.6734,4272.17
32.7074,4325.96
32.7414,4357.4
32.7754,4325.47
32.8094,4312.59
32.8434,4191.82
32.8774,4280.92
32.9114,4383.45
32.9454,4408.44
32.9794,4331.23
33.0134,4402.48
33.0474,4463.93
33.0814,4444.88
33.1154,4387.67
33.1494,4513.23
33.1834,4466.96
33.2174,4524.42
33.2514,4622.2
33.2854,4625.86
33.3194,4582.24
33.3534,4591.55
33.3874,4665.62
33.4214,4536.82
33.4554,4609.34
33.4894,4617.94
33.5234,4673.87
33.5574,4719.43
33.5914,4664.69
33.6254,4635.69
33.6594,4495.7
33.6934,4687.7
33.7274,4593.73
33.7614,4543.04
33.7954,4643.17
33.8294,4563.88
33.8634,4460.75
33.8974,4498.45
33.9314,4411.05
33.9654,4460.02
33.9994,4429.1
34.0334,4446.37
34.0674,4405.97
34.1014,4347.7
34.1354,4313.24
34.1694,4402.31
34.2034,4327.67
34.2374,4364.77
34.2714,4368.94
34.3054,4407.32
34.3394,4441.32
34.3734,4360.57
34.4074,4303.63
34.4414,4286.74
34.4754,4412.63
34.5094,4319.53
34.5434,4286.76
34.5774,4252.67
34.6114,4364.89
34.6454,4286.24
34.6794,4402.51
34.7134,4199.56
34.7474,4230.67
34.7814,4332.4
34.8154,4323.39
34.8494,4342.58
34.8834,4179.07
34.9174,4205.94
34.9514,4248.7
34.9854,4239.53
35.0194,4219.67
35.0534,4176.22
35.0874,4164.43
35.1214,4193.13
35.1554,4164.99
35.1894,4207.59
35.2234,4168.88
35.2574,4146.84
35.2914,4047.57
35.3254,4156.54
35.3594,4173.77
35.3934,4217.01
35.4274,4065.76
35.4614,4095.62
35.4954,4157.76
35.5294,4054.24
35.5634,4210.33
35.5974,4085.39
35.6314,4091.73
35.6654,4052.83
35.6994,4067.59
35.7334,4094.87
35.7674,4152.53
35.8014,4143.76
35.8354,4030.51
35.8694,4049.64
35.9034,4033.27
35.9374,4131.35
35.9714,4112.2
36.0054,4143.36
36.0394,4070.81
36.0734,4112.44
36.1074,4096.29
36.1414,4009.92
36.1754,4040.43
36.2094,4053.7
36.2434,4073.98
36.2774,3955.01
36.3114,4015.69
36.3454,3981.17
36.3794,3975.32
36.4134,4079.66
36.4474,4028.95
36.4814,4070.46
36.5154,4050.26
36.5494,4082.51
36.5834,4053.47
36.6174,4130.03
36.6514,3977.88
36.6854,3924.37
36.7194,4055.66
36.7534,4081.29
36.7874,4106.37
36.8214,4130.33
36.8554,4071.05
36.8894,4019.87
36.9234,4032.45
36.9574,3874.16
36.9914,4122.26
37.0254,4022.45
37.0594,4039.06
37.0934,4064.45
37.1274,4041.1
37.1614,4021.62
37.1954,4059.43
37.2294,3927.84
37.2634,4002.6
37.2974,3983.29
37.3314,3931.21
37.3654,3979.2
37.3994,4024.68
37.4334,4054.9
37.4674,3934.21
37.5014,4028.9
37.5354,3969.98
37.5694,3949.27
37.6034,4019.35
37.6374,4075.35
37.6714,3934.93
37.7054,4084.73
37.7394,3998.07
37.7734,4045.41
37.8074,3937.37
37.8414,3951.91
37.8754,3986.91
37.9094,4039.14
37.9434,3994.57
37.9774,4026.43
38.0114,3991.02
38.0454,4081.56
38.0794,4011.99
38.1134,3991.04
38.1474,4026.45
38.1814,3863.62
38.2154,4078.5
38.2494,4033.52
38.2834,4093.51
38.3174,4055.26
38.3514,4050.26
38.3854,3969.79
38.4194,4052.8
38.4534,4089.3
38.4874,4056.17
38.5214,4001.08
38.5554,4032.2
38.5894,4045.29
38.6234,4167.09
38.6574,4003.93
38.6914,4118.48
38.7254,4012.86
38.7594,4102.59
38.7934,3990.43
38.8274,4026.43
38.8614,4063.15
38.8954,3961.33
38.9294,4027.99
38.9634,4046.67
38.9974,4015.81
39.0314,4087
39.0654,4007.46
39.0994,4017.6
39.1334,3920.66
39.1674,4100.19
39.2014,4071.88
39.2354,4037.66
39.2694,3978.55
39.3034,4030.56
39.3374,4029.1
39.3714,4024.74
39.4054,3974.95
39.4394,3996.17
39.4734,4066.16
39.5074,3917.18
39.5414,4103.82
39.5754,4064.66
39.6094,4043.52
39.6434,4159.23
39.6774,4137.72
39.7114,4111.42
39.7454,3966.11
39.7794,4106.41
39.8134,4187.55
39.8474,4085.43
39.8814,4065.71
39.9154,4197.75
39.9494,4180.87
39.9834,4200.35
40.0174,4222.53
40.0514,4226.03
40.0854,4255.31
40.1194,4330.7
40.1534,4325.74
40.1874,4376.5
40.2214,4378.92
40.2554,4371.76
40.2894,4325.73
40.3234,4296.72
40.3574,4347.52
40.3914,4312.89
40.4254,4347.73
40.4594,4263.28
40.4934,4224.42
40.5274,4292.19
40.5614,4155.91
40.5954,4262.24
40.6294,4238.95
40.6634,4159.81
40.6974,4222.61
40.7314,4112.57
40.7654,4253.57
40.7994,4148.52
40.8334,4121.61
40.8674,4096.65
40.9014,3983.38
40.9354,4094.77
40.9694,4172.96
41.0034,4186.69
41.0374,3970.35
41.0714,3976.19
41.1054,4025.87
41.1394,4059.35
41.1734,4057.89
41.2074,4020.09
41.2414,4036.74
41.2754,4057.32
41.3094,3929.53
41.3434,3978.51
41.3774,3999.36
41.4114,4035.44
41.4454,4050.72
41.4794,3987.11
41.5134,4006.87
41.5474,4090.79
41.5814,3921.49
41.6154,3955.32
41.6494,3979.13
41.6834,3966.14
41.7174,3979.03
41.7514,4007.59
41.7854,3915.25
41.8194,4117.45
41.8534,3998.18
41.8874,3999.14
41.9214,3946.15
41.9554,4001.84
41.9894,4013.68
42.0234,3910.5
42.0574,3962.27
42.0914,3990.98
42.1254,3959.43
42.1594,4018.31
42.1934,3976.35
42.2274,3947.38
42.2614,4053.69
42.2954,3996.09
42.3294,4067.81
42.3634,3876.32
42.3974,3970.85
42.4314,3922.77
42.4654,3972.53
42.4994,3920.46
42.5334,3995.32
42.5674,3878.74
42.6014,4107.02
42.6354,4044.57
42.6694,3845.56
42.7034,3900.91
42.7374,4094.27
42.7714,3998.38
42.8054,3897.52
42.8394,3930.1
42.8734,4062.41
42.9074,3928.44
42.9414,3922.92
42.9754,4017.74
43.0094,3921.94
43.0434,3965.01
43.0774,3958.54
43.1114,4050.32
43.1454,3921.36
43.1794,3981.59
43.2134,3981.22
43.2474,3898.76
43.2814,4033.24
43.3154,3945.63
43.3494,3869.95
43.3834,3943.14
43.4174,3967.49
43.4514,3915.36
43.4854,4008.3
43.5194,4038.35
43.5534,3998.96
43.5874,3944.13
43.6214,3947.91
43.6554,3998.34
43.6894,3928.65
43.7234,3949.06
43.7574,3895.42
43.7914,3905.49
43.8254,3993.88
43.8594,3845.84
43.8934,3916.12
43.9274,3966.15
43.9614,3929.22
43.9954,3873.88
44.0294,3965.53
44.0634,3835.42
44.0974,3945
44.1314,3980.31
44.1654,3900.05
44.1994,3860.07
44.2334,3896.82
44.2674,3893.03
44.3014,3804.4
44.3354,3936.24
44.3694,3883.75
44.4034,3881.94
44.4374,3827.06
44.4714,3851.77
44.5054,3895.16
44.5394,3731.81
44.5734,3899.03
44.6074,3934.87
44.6414,3869.49
44.6754,3884.6
44.7094,3907.6
44.7434,3876.97
44.7774,3865.8
44.8114,3875.01
44.8454,3845.88
44.8794,3841.21
44.9134,3883.97
44.9474,3893.32
44.9814,3855.2
45.0154,3889.85
45.0494,3872.26
45.0834,3868.27
45.1174,3922.69
45.1514,3895.66
45.1854,3897.87
45.2194,3907.29
45.2534,3772.89
45.2874,3939.59
45.3214,3835.83
45.3554,3830.13
45.3894,3918.23
45.4234,3894.97
45.4574,3889.12
45.4914,3886.99
45.5254,3862.02
45.5594,3915.27
45.5934,3860.05
45.6274,3815.65
45.6614,3913.53
45.6954,3767.02
45.7294,3809.99
45.7634,3960.97
45.7974,3863.91
45.8314,3853.13
45.8654,3809.26
45.8994,3877.83
45.9334,3828.86
45.9674,3766.36
46.0014,3894.41
46.0354,3921.22
46.0694,3888.63
46.1034,3982.52
46.1374,3888.12
46.1714,3832.98
46.2054,3799.03
46.2394,3832.57
46.2734,3946.86
46.3074,3869.13
46.3414,3863.47
46.3754,3855.04
46.4094,3824.56
46.4434,3800.67
46.4774,3857.85
46.5114,3935.04
46.5454,3816.48
46.5794,3850.33
46.6134,3919.39
46.6474,3889.11
46.6814,3894.74
46.7154,3825.46
46.7494,3881.92
46.7834,3833.55
46.8174,3818.75
46.8514,3855.19
46.8854,3817.32
46.9194,3919.84
46.9534,3926.2
46.9874,3914.02
47.0214,3901.02
47.0554,3842.73
47.0894,3905.78
47.1234,3798.69
47.1574,3847.13
47.1914,3907.57
47.2254,3879.5
47.2594,3869.73
47.2934,3891.49
47.3274,3925.82
47.3614,4010.55
47.3954,3876.64
47.4294,3803.28
47.4634,3890.12
47.4974,3924.05
47.5314,3941.84
47.5654,3856.01
47.5994,3943.34
47.6334,3945.14
47.6674,3868.63
47.7014,3815.83
47.7354,3921.21
47.7694,3914.42
47.8034,3830.74
47.8374,3854.72
47.8714,3817.16
47.9054,3831.31
47.9394,3924.35
47.9734,4004.94
48.0074,3924.43
48.0414,4056.61
48.0754,3938.87
48.1094,3967.88
48.1434,3997.1
48.1774,3911.11
48.2114,3975.55
48.2454,4132.06
48.2794,4026.07
48.3134,4050.6
48.3474,4196.31
48.3814,4095.73
48.4154,4093.45
48.4494,4267.05
48.4834,4169.78
48.5174,4133.14
48.5514,4295.67
48.5854,4284.75
48.6194,4434.96
48.6534,4425.6
48.6874,4456.19
48.7214,4502.63
48.7554,4543.91
48.7894,4594.01
48.8234,4425.26
48.8574,4416.82
48.8914,4534.37
48.9254,4519.19
48.9594,4408.68
48.9934,4390.5
49.0274,4461.74
49.0614,4435.87
49.0954,4349.47
49.1294,4255.48
49.1634,4353.43
49.1974,4267.75
49.2314,4281.69
49.2654,4219.2
49.2994,4259.47
49.3334,4179.29
49.3674,4108.42
49.4014,4060.84
49.4354,3985.82
49.4694,4050.27
49.5034,3925.45
49.5374,4088.38
49.5714,3907.32
49.6054,4017.81
49.6394,3992.1
49.6734,4011.76
49.7074,3922.9
49.7414,3918.79
49.7754,3926.9
49.8094,3934.49
49.8434,3887.09
49.8774,3953.39
49.9114,3921.56
49.9454,3849.37
49.9794,3814.01
50.0134,3806.4
50.0474,3787.54
50.0814,3780.08
50.1154,3804.11
50.1494,3829.67
50.1834,3733.81
50.2174,3805.46
50.2514,3786.89
50.2854,3740.37
50.3194,3874.78
50.3534,3801.86
50.3874,3863.14
50.4214,3785.63
50.4554,3776.94
50.4894,3815.71
50.5234,3808.09
50.5574,3820.4
50.5914,3749.04
50.6254,3815.3
50.6594,3887.87
50.6934,3814.1
50.7274,3807.94
50.7614,3809.29
50.7954,3766.56
50.8294,3744.14
50.8634,3805.11
50.8974,3834.16
50.9314,3740.48
50.9654,3794.17
50.9994,3764.91
51.0334,3774.98
51.0674,3783.68
51.1014,3801.15
51.1354,3773.79
51.1694,3736.5
51.2034,3757.69
51.2374,3718.95
51.2714,3820.64
51.3054,3778.59
51.3394,3845.19
51.3734,3795.95
51.4074,3798.74
51.4414,3772.56
51.4754,3794.87
51.5094,3811.61
51.5434,3773.4
51.5774,3829.71
51.6114,3768.03
51.6454,3832.47
51.6794,3857.61
51.7134,3804.26
51.7474,3796.26
51.7814,3852.32
51.8154,3793.07
51.8494,3781.7
51.8834,3713.99
51.9174,3775.36
51.9514,3749.64
51.9854,3805.46
52.0194,3792.52
52.0534,3819.86
52.0874,3727.32
52.1214,3677.78
52.1554,3760.83
52.1894,3749.41
52.2234,3680.14
52.2574,3710.54
52.2914,3718.23
52.3254,3844.38
52.3594,3762.15
52.3934,3796.11
52.4274,3797.87
52.4614,3773.71
52.4954,3667.6
52.5294,3810.09
52.5634,3680.83
52.5974,3726.12
52.6314,3881.47
52.6654,3768.89
52.6994,3739.03
52.7334,3777.08
52.7674,3796.93
52.8014,3798.29
52.8354,3799.24
52.8694,3845.64
52.9034,3780.42
52.9374,3732.33
52.9714,3823.58
53.0054,3783.57
53.0394,3776.45
53.0734,3876.6
53.1074,3765.15
53.1414,3859.5
53.1754,3906.09
53.2094,3857.79
53.2434,3856.22
53.2774,3700.51
53.3114,3909.22
53.3454,3880.29
53.3794,3762.91
53.4134,3841.94
53.4474,3963.24
53.4814,3966.33
53.5154,3880.82
53.5494,3947.36
53.5834,3975.26
53.6174,3923.89
53.6514,3993.11
53.6854,3999.91
53.7194,3990.52
53.7534,4045.83
53.7874,4076.66
53.8214,4022.62
53.8554,4199.8
53.8894,4125.62
53.9234,4129.34
53.9574,4166.73
53.9914,4254.72
54.0254,4167.79
54.0594,4342.03
54.0934,4255.58
54.1274,4288.91
54.1614,4322.31
54.1954,4395.17
54.2294,4468.05
54.2634,4416.67
54.2974,4478.03
54.3314,4429.42
54.3654,4326.17
54.3994,4460.23
54.4334,4509.63
54.4674,4547.65
54.5014,4433.79
54.5354,4504.28
54.5694,4355.95
54.6034,4302
54.6374,4361.04
54.6714,4330.3
54.7054,4361.62
54.7394,4289.08
54.7734,4232.27
54.8074,4188.29
54.8414,4165.68
54.8754,4282.25
54.9094,4130.57
54.9434,4140.51
54.9774,4125.88
55.0114,4107.37
55.0454,4111.4
55.0794,4045.57
55.1134,4139.08
55.1474,4138.56
55.1814,4120.69
55.2154,3999.72
55.2494,4017.59
55.2834,4050.85
55.3174,4085.04
55.3514,3962.9
55.3854,4021.9
55.4194,4109.57
55.4534,4039.76
55.4874,4002.76
55.5214,4016.26
55.5554,4089.85
55.5894,4141.5
55.6234,3989.76
55.6574,4057.15
55.6914,3987.72
55.7254,3966.24
55.7594,4045.31
55.7934,4146.8
55.8274,4043.1
55.8614,3974.64
55.8954,4046.59
55.9294,4090.35
55.9634,4016.2
55.9974,4028.43
56.0314,3964.95
56.0654,4036.38
56.0994,3951.57
56.1334,4013.38
56.1674,3957.72
56.2014,3975.5
56.2354,4006.75
56.2694,3922.36
56.3034,3885.17
56.3374,3943.66
56.3714,3878.22
56.4054,3808.27
56.4394,3822.25
56.4734,3916.82
56.5074,3924.12
56.5414,3858.63
56.5754,3832.85
56.6094,3869.42
56.6434,3769.14
56.6774,3821.94
56.7114,3828.89
56.7454,3831.72
56.7794,3777.04
56.8134,3692.43
56.8474,3844.02
56.8814,3851.41
56.9154,3794.41
56.9494,3845.14
56.9834,3788.43
57.0174,3775.03
57.0514,3742.03
57.0854,3685.81
57.1194,3761.62
57.1534,3735.24
57.1874,3775.35
57.2214,3770.4
57.2554,3701.17
57.2894,3823.5
57.3234,3735.22
57.3574,3833.91
57.3914,3783.62
57.4254,3707.89
57.4594,3648.43
57.4934,3677.5
57.5274,3808.52
57.5614,3660.65
57.5954,3745.47
57.6294,3722.18
57.6634,3843.18
57.6974,3793.34
57.7314,3720.68
57.7654,3739.99
57.7994,3788.82
57.8334,3772.24
57.8674,3713.55
57.9014,3712.13
57.9354,3644.72
57.9694,3748.65
58.0034,3745.69
58.0374,3698.65
58.0714,3765.83
58.1054,3769.81
58.1394,3763.16
58.1734,3750.26
58.2074,3769.77
58.2414,3692.85
58.2754,3772.33
58.3094,3682.69
58.3434,3856.33
58.3774,3821.12
58.4114,3756.37
58.4454,3724.66
58.4794,3704.36
58.5134,3743.39
58.5474,3658.35
58.5814,3727.74
58.6154,3717.77
58.6494,3664.48
58.6834,3681.04
58.7174,3679.67
58.7514,3724.29
58.7854,3780.21
58.8194,3751.66
58.8534,3779.69
58.8874,3719.86
58.9214,3786.51
58.9554,3724.66
58.9894,3742.74
59.0234,3729.48
59.0574,3714.8
59.0914,3747.62
59.1254,3823.78
59.1594,3761.39
59.1934,3738.07
59.2274,3737.31
59.2614,3745.5
59.2954,3825.07
59.3294,3748.1
59.3634,3760.99
59.3974,3724.06
59.4314,3719.01
59.4654,3651.42
59.4994,3719.74
59.5334,3773.73
59.5674,3746.1
59.6014,3797.98
59.6354,3728.13
59.6694,3744.58
59.7034,3783.91
59.7374,3711.07
59.7714,3785.59
59.8054,3686.35
59.8394,3770.19
59.8734,3712.78
59.9074,3768.43
59.9414,3771.12
59.9754,3776.52
60.0094,3832.49
60.0434,3800.27
60.0774,3752.94
60.1114,3661.18
60.1454,3817.32
60.1794,3820.61
60.2134,3852.25
60.2474,3761
60.2814,3700.27
60.3154,3811.82
60.3494,3812.99
60.3834,3739.13
60.4174,3695.07
60.4514,3777.41
60.4854,3819.07
60.5194,3810.85
60.5534,3752.52
60.5874,3827.98
60.6214,3728.3
60.6554,3762.55
60.6894,3796.02
60.7234,3784.06
60.7574,3667.07
60.7914,3782.45
60.8254,3749.24
60.8594,3773.53
60.8934,3838.69
60.9274,3834.11
60.9614,3807.46
60.9954,3814.44
61.0294,3834.49
61.0634,3873.02
61.0974,3916.32
61.1314,3961.84
61.1654,3857.1
61.1994,3933.36
61.2334,3863.32
61.2674,4002.26
61.3014,4008.55
61.3354,3902.06
61.3694,3908.21
61.4034,3987.1
61.4374,3938.21
61.4714,3908.24
61.5054,3862.04
61.5394,3875.2
61.5734,3899.23
61.6074,3858.16
61.6414,3915.17
61.6754,3952.81
61.7094,3867.35
61.7434,3890.07
61.7774,3754.29
61.8114,3785.2
61.8454,3868.51
61.8794,3840.92
61.9134,3912.78
61.9474,3894.41
61.9814,3895.13
62.0154,3823.44
62.0494,3840.01
62.0834,3892.26
62.1174,3799.3
62.1514,3812.4
62.1854,3863.84
62.2194,3761.09
62.2534,3715.53
62.2874,3956.06
62.3214,3874.98
62.3554,3897.26
62.3894,3789.07
62.4234,3896.29
62.4574,3778.5
62.4914,3836.06
62.5254,3797.05
62.5594,3751.47
62.5934,3798.96
62.6274,3822.14
62.6614,3816.08
62.6954,3801.3
62.7294,3695.07
62.7634,3757.23
62.7974,3708.37
62.8314,3838.3
62.8654,3772.95
62.8994,3704.03
62.9334,3785.46
62.9674,3718.47
63.0014,3712.78
63.0354,3741.97
63.0694,3724.37
63.1034,3793.58
63.1374,3728.83
63.1714,3742.45
63.2054,3777.54
63.2394,3850.16
63.2734,3781.23
63.3074,3628.95
63.3414,3708.01
63.3754,3874.88
63.4094,3764.22
63.4434,3659.49
63.4774,3774.51
63.5114,3696.6
63.5454,3697.97
63.5794,3755.37
63.6134,3711.41
63.6474,3704.12
63.6814,3711.86
63.7154,3666.66
63.7494,3603.95
63.7834,3750.89
63.8174,3760.03
63.8514,3713.03
63.8854,3684.8
63.9194,3690.01
63.9534,3694.24
63.9874,3729.92
64.0214,3639.24
64.0554,3670.81
64.0894,3641.95
64.1234,3572.89
64.1574,3724.43
64.1914,3640.11
64.2254,3731.33
64.2594,3705.21
64.2934,3665.03
64.3274,3705.8
64.3614,3684.48
64.3954,3702.42
64.4294,3713.51
64.4634,3710
64.4974,3578.9
64.5314,3645.26
64.5654,3712.95
64.5994,3689.47
64.6334,3694.93
64.6674,3632.94
64.7014,3716.69
64.7354,3596.2
64.7694,3677.18
64.8034,3608.54
64.8374,3680.7
64.8714,3679.31
64.9054,3670.57
64.9394,3740.82
64.9734,3606.99
65.0074,3676.44
65.0414,3711.16
65.0754,3629.17
65.1094,3740.85
65.1434,3636.05
65.1774,3712.44
65.2114,3704.82
65.2454,3694.07
65.2794,3677.27
65.3134,3661.67
65.3474,3568.66
65.3814,3650
65.4154,3724.26
65.4494,3683.73
65.4834,3631.14
65.5174,3675.78
65.5514,3744.81
65.5854,3643.18
65.6194,3631.56
65.6534,3741.18
65.6874,3768.65
65.7214,3654.62
65.7554,3654.46
65.7894,3629.68
65.8234,3727.15
65.8574,3669.72
65.8914,3698.79
65.9254,3741.98
65.9594,3737.55
65.9934,3720.43
66.0274,3594.57
66.0614,3625.51
66.0954,3715.81
66.1294,3673.95
66.1634,3625.43
66.1974,3573.53
66.2314,3658.82
66.2654,3642.63
66.2994,3642.16
66.3334,3705.67
66.3674,3696.14
66.4014,3713.98
66.4354,3760.07
66.4694,3607.09
66.5034,3620.98
66.5374,3664.22
66.5714,3652.49
66.6054,3638.76
66.6394,3666.89
66.6734,3622.47
66.7074,3637.47
66.7414,3688
66.7754,3737.67
66.8094,3540
66.8434,3656.21
66.8774,3725.81
66.9114,3650.64
66.9454,3711.39
66.9794,3607.38
67.0134,3600.05
67.0474,3647.7
67.0814,3717.56
67.1154,3591.25
67.1494,3600.85
67.1834,3572.62
67.2174,3648.1
67.2514,3610.51
67.2854,3797.49
67.3194,3581.85
67.3534,3623.14
67.3874,3671.84
67.4214,3672.89
67.4554,3647.1
67.4894,3582.05
67.5234,3595.86
67.5574,3686.4
67.5914,3580.72
67.6254,3637.4
67.6594,3628.58
67.6934,3679.96
67.7274,3634.54
67.7614,3679.66
67.7954,3673.19
67.8294,3756.4
67.8634,3673.19
67.8974,3600.91
67.9314,3622.94
67.9654,3612.01
67.9994,3597.55
68.0334,3698.33
68.0674,3680.1
68.1014,3639.53
68.1354,3644.18
68.1694,3623.99
68.2034,3557.36
68.2374,3663.32
68.2714,3693.92
68.3054,3679.14
68.3394,3688.96
68.3734,3687.19
68.4074,3658.98
68.4414,3691.49
68.4754,3729.2
68.5094,3612.02
68.5434,3699.6
68.5774,3658.33
68.6114,3665.71
68.6454,3754.76
68.6794,3660.42
68.7134,3739.5
68.7474,3692.91
68.7814,3734.44
68.8154,3691.1
68.8494,3775.53
68.8834,3714.51
68.9174,3710.67
68.9514,3700.38
68.9854,3634.79
69.0194,3676.78
69.0534,3759.44
69.0874,3700.11
69.1214,3725.04
69.1554,3729.43
69.1894,3589.12
69.2234,3585.66
69.2574,3702.28
69.2914,3655.02
69.3254,3700.24
69.3594,3723.83
69.3934,3621.96
69.4274,3665.24
69.4614,3711.96
69.4954,3763.94
69.5294,3693.34
69.5634,3719.33
69.5974,3747.56
69.6314,3815.6
69.6654,3690.61
69.6994,3810.06
69.7334,3802.45
69.7674,3777.01
69.8014,3787.75
69.8354,3723.29
69.8694,3666.68
69.9034,3665.73
69.9374,3677.42
69.9714,3754.25
69.9884,3709.04