File: herald_visualization/Delia_Scripts/FeF3_1to1_KS6Lgraphite/240828-FeF3_1to1_KS6Lgraphite-0min_milled-20-70deg_40min.csv
2Theta,Intensity
20.0254,6758.76
20.0594,6634.5
20.0934,6672.74
20.1274,6709.51
20.1614,6473.3
20.1954,6651.55
20.2294,6572.72
20.2634,6518.81
20.2974,6564.03
20.3314,6667.31
20.3654,6528.74
20.3994,6603.76
20.4334,6528.08
20.4674,6590.27
20.5014,6483.54
20.5354,6336.51
20.5694,6530.53
20.6034,6418.81
20.6374,6447.84
20.6714,6384.82
20.7054,6388.26
20.7394,6347.94
20.7734,6360.09
20.8074,6245.03
20.8414,6395.28
20.8754,6364.39
20.9094,6355.69
20.9434,6165.24
20.9774,6311.59
21.0114,6266.95
21.0454,6230.29
21.0794,6295.78
21.1134,6136.29
21.1474,6275.22
21.1814,6158.74
21.2154,6214.17
21.2494,6176.62
21.2834,6212.97
21.3174,6161.85
21.3514,6040.54
21.3854,6212.36
21.4194,6090.69
21.4534,6102.27
21.4874,6111.01
21.5214,5996.25
21.5554,6006.84
21.5894,5974.26
21.6234,5952.13
21.6574,6043.6
21.6914,5953.74
21.7254,5976.86
21.7594,6019.82
21.7934,5912.46
21.8274,5860.15
21.8614,5916.79
21.8954,5810.23
21.9294,5864.38
21.9634,5953.57
21.9974,5808.63
22.0314,5774.81
22.0654,5737.22
22.0994,5812.62
22.1334,5756.33
22.1674,5724.69
22.2014,5748.41
22.2354,5768.63
22.2694,5722.5
22.3034,5720.13
22.3374,5681.51
22.3714,5655.52
22.4054,5676.14
22.4394,5590.01
22.4734,5693.15
22.5074,5644.64
22.5414,5552.7
22.5754,5564.87
22.6094,5514.07
22.6434,5515.63
22.6774,5484.34
22.7114,5568.16
22.7454,5537.32
22.7794,5493.66
22.8134,5502.45
22.8474,5492.54
22.8814,5505.85
22.9154,5644.26
22.9494,5440.22
22.9834,5492.07
23.0174,5609.33
23.0514,5575.54
23.0854,5588.16
23.1194,5622.12
23.1534,5660.43
23.1874,5570
23.2214,5610.69
23.2554,5575.5
23.2894,5661.61
23.3234,5616.15
23.3574,5675.06
23.3914,5833.96
23.4254,5894.62
23.4594,6054.6
23.4934,6272.8
23.5274,6520.16
23.5614,6933.97
23.5954,7590.56
23.6294,8571.4
23.6634,9978.79
23.6974,11583.2
23.7314,13922.7
23.7654,17041.1
23.7994,20278.4
23.8334,22631.6
23.8674,21546.9
23.9014,16852.8
23.9354,12301.7
23.9694,8888.88
24.0034,7136.57
24.0374,6448.38
24.0714,6145.67
24.1054,5822.02
24.1394,5699.65
24.1734,5530.76
24.2074,5360.48
24.2414,5287.31
24.2754,5318.83
24.3094,5284.93
24.3434,5310.26
24.3774,5156.36
24.4114,5246.57
24.4454,5163.45
24.4794,5036.34
24.5134,5172.61
24.5474,5158.55
24.5814,5122.52
24.6154,5081.27
24.6494,5071.12
24.6834,5127.42
24.7174,4979.92
24.7514,5217.48
24.7854,4922.37
24.8194,5067.4
24.8534,5035.33
24.8874,5070.45
24.9214,5051.17
24.9554,5071.11
24.9894,4939.92
25.0234,5067.41
25.0574,5101.47
25.0914,5023.04
25.1254,4908.82
25.1594,5025.68
25.1934,4993.58
25.2274,4992.77
25.2614,4931.15
25.2954,5000.43
25.3294,4975
25.3634,4957.95
25.3974,4919.44
25.4314,4948.51
25.4654,4970.67
25.4994,4933.19
25.5334,5025.54
25.5674,4915.81
25.6014,4960.31
25.6354,4900.78
25.6694,4904.74
25.7034,4964.89
25.7374,4980.11
25.7714,4996
25.8054,4976.9
25.8394,4948.9
25.8734,4963.78
25.9074,4908.74
25.9414,5034.94
25.9754,4993.64
26.0094,4884.81
26.0434,4904.48
26.0774,4945.02
26.1114,4880.7
26.1454,5115.17
26.1794,4981.51
26.2134,4905
26.2474,4984.79
26.2814,5061.79
26.3154,5209.31
26.3494,5223.45
26.3834,5301.77
26.4174,5546.87
26.4514,5807.08
26.4854,6192.01
26.5194,6541.07
26.5534,6820.41
26.5874,6395.11
26.6214,6235.56
26.6554,5710.69
26.6894,5432.91
26.7234,5170.61
26.7574,5065.5
26.7914,5018.9
26.8254,5072.19
26.8594,4913.66
26.8934,4946.89
26.9274,4891.37
26.9614,4929.55
26.9954,4858.2
27.0294,4979.58
27.0634,4808.55
27.0974,4749.52
27.1314,4758.91
27.1654,4783.65
27.1994,4743.18
27.2334,4813
27.2674,4811.17
27.3014,4738.31
27.3354,4883.37
27.3694,4808.3
27.4034,4815.32
27.4374,4703.45
27.4714,4714
27.5054,4764.7
27.5394,4734.71
27.5734,4778.7
27.6074,4817.48
27.6414,4746.03
27.6754,4694.36
27.7094,4705.44
27.7434,4671.73
27.7774,4689.69
27.8114,4570.2
27.8454,4763.22
27.8794,4601.02
27.9134,4644.16
27.9474,4712.37
27.9814,4713.71
28.0154,4553.13
28.0494,4583.96
28.0834,4665.59
28.1174,4564.48
28.1514,4797.17
28.1854,4608.53
28.2194,4693.25
28.2534,4604.07
28.2874,4602.49
28.3214,4637.54
28.3554,4626.32
28.3894,4543.36
28.4234,4513.64
28.4574,4679.78
28.4914,4606.45
28.5254,4534.16
28.5594,4533.01
28.5934,4522.87
28.6274,4500.61
28.6614,4594.95
28.6954,4563.05
28.7294,4546.81
28.7634,4503.73
28.7974,4543.69
28.8314,4549.59
28.8654,4483.09
28.8994,4643.01
28.9334,4526.09
28.9674,4438.06
29.0014,4520.09
29.0354,4556.51
29.0694,4572.7
29.1034,4526.24
29.1374,4362.72
29.1714,4519.56
29.2054,4437.55
29.2394,4467.14
29.2734,4509
29.3074,4427.49
29.3414,4512.33
29.3754,4481.44
29.4094,4406.71
29.4434,4394.85
29.4774,4520.41
29.5114,4555.67
29.5454,4430.11
29.5794,4414.09
29.6134,4440.67
29.6474,4496.51
29.6814,4514.79
29.7154,4409.29
29.7494,4373.79
29.7834,4301.33
29.8174,4496.15
29.8514,4376.99
29.8854,4391.76
29.9194,4286.95
29.9534,4395.09
29.9874,4293.41
30.0214,4539.46
30.0554,4357.24
30.0894,4400
30.1234,4351.96
30.1574,4453.28
30.1914,4358.73
30.2254,4368.69
30.2594,4299.13
30.2934,4233.51
30.3274,4398.83
30.3614,4440.86
30.3954,4425.33
30.4294,4386.01
30.4634,4404.37
30.4974,4367.84
30.5314,4330.28
30.5654,4342.69
30.5994,4266.63
30.6334,4291.68
30.6674,4276.18
30.7014,4307.93
30.7354,4286.42
30.7694,4317.23
30.8034,4260.64
30.8374,4279.77
30.8714,4264.01
30.9054,4228.47
30.9394,4309.08
30.9734,4213.3
31.0074,4238.11
31.0414,4336.93
31.0754,4209.09
31.1094,4228.15
31.1434,4258.21
31.1774,4267.11
31.2114,4252.53
31.2454,4270.25
31.2794,4314.28
31.3134,4310.34
31.3474,4158.99
31.3814,4212.29
31.4154,4214.89
31.4494,4292.74
31.4834,4130.09
31.5174,4250.55
31.5514,4179.07
31.5854,4191.15
31.6194,4216.38
31.6534,4162.6
31.6874,4331.49
31.7214,4164.66
31.7554,4191.67
31.7894,4214.92
31.8234,4187.27
31.8574,4097.23
31.8914,4062.39
31.9254,4283.52
31.9594,4205.55
31.9934,4220.82
32.0274,4224.43
32.0614,4195.51
32.0954,4204.36
32.1294,4143.98
32.1634,4214.42
32.1974,4260.94
32.2314,4172.09
32.2654,4094.63
32.2994,4200.52
32.3334,4126.58
32.3674,4144.71
32.4014,4150.22
32.4354,4154.98
32.4694,4123.42
32.5034,4167.81
32.5374,4164.71
32.5714,4239.4
32.6054,4171.12
32.6394,4191.01
32.6734,4030.46
32.7074,4137.94
32.7414,4097.32
32.7754,4105.59
32.8094,4123.29
32.8434,4193.68
32.8774,4159.4
32.9114,4059.25
32.9454,4190.52
32.9794,4211.07
33.0134,4154.61
33.0474,4226.18
33.0814,4156.13
33.1154,4201.72
33.1494,4225.31
33.1834,4361.81
33.2174,4427.49
33.2514,4473.14
33.2854,4550.1
33.3194,4821.39
33.3534,5211.47
33.3874,5543.61
33.4214,5819.12
33.4554,6025.34
33.4894,5588
33.5234,5372.49
33.5574,5001.76
33.5914,4729.59
33.6254,4578.83
33.6594,4362.52
33.6934,4325.01
33.7274,4242.24
33.7614,4363.18
33.7954,4273.44
33.8294,4161.55
33.8634,4211.51
33.8974,4106.48
33.9314,4183.59
33.9654,4247.41
33.9994,4249.39
34.0334,4161.94
34.0674,4264.38
34.1014,4176.74
34.1354,4279.59
34.1694,4312.91
34.2034,4296.04
34.2374,4347.9
34.2714,4401.43
34.3054,4478.67
34.3394,4532.39
34.3734,4613.6
34.4074,4698.78
34.4414,4740.74
34.4754,4738.48
34.5094,4738.19
34.5434,4601.12
34.5774,4433.7
34.6114,4296.27
34.6454,4172.97
34.6794,4160.31
34.7134,4036.55
34.7474,4016.89
34.7814,4066.97
34.8154,4014.22
34.8494,4086.66
34.8834,4031.57
34.9174,3984.39
34.9514,3982.11
34.9854,3968.98
35.0194,3943.93
35.0534,4051.6
35.0874,3959.42
35.1214,3971.27
35.1554,3895.76
35.1894,3967.5
35.2234,3894.57
35.2574,3944.81
35.2914,4051.03
35.3254,3994.81
35.3594,3909.52
35.3934,3948.73
35.4274,3941.96
35.4614,3924.79
35.4954,3974.41
35.5294,3928.91
35.5634,3936.19
35.5974,4013.87
35.6314,3892.48
35.6654,3946.01
35.6994,3865.91
35.7334,3904.09
35.7674,3862.98
35.8014,4020.13
35.8354,3855.56
35.8694,3941.52
35.9034,3894.69
35.9374,4001.2
35.9714,3880.03
36.0054,3865.8
36.0394,3972.96
36.0734,3906.05
36.1074,3974.36
36.1414,3913.01
36.1754,3884.43
36.2094,3873.36
36.2434,3891.51
36.2774,3877.01
36.3114,3893.57
36.3454,3892.02
36.3794,3896.65
36.4134,3943.81
36.4474,3904.23
36.4814,3835.18
36.5154,3933.12
36.5494,3865.04
36.5834,3820
36.6174,3967.23
36.6514,3903
36.6854,3822.77
36.7194,3898.61
36.7534,3905.06
36.7874,3785.78
36.8214,3869.06
36.8554,3914.99
36.8894,3866.89
36.9234,3919.75
36.9574,3879.84
36.9914,3922.64
37.0254,3890.54
37.0594,3919.07
37.0934,3900.98
37.1274,3898.01
37.1614,3790.13
37.1954,3827.46
37.2294,3872.2
37.2634,3873.09
37.2974,3860.85
37.3314,3817.03
37.3654,3899.75
37.3994,3828.47
37.4334,3779.94
37.4674,3936.04
37.5014,3863.31
37.5354,3817.26
37.5694,3821.61
37.6034,3861.65
37.6374,3904.5
37.6714,3801.86
37.7054,3906.66
37.7394,3791.87
37.7734,3854.74
37.8074,3946.42
37.8414,3903.11
37.8754,3869.71
37.9094,3768.45
37.9434,3820.97
37.9774,3835.03
38.0114,3812.97
38.0454,3797.18
38.0794,3794.61
38.1134,3838.98
38.1474,3866.74
38.1814,3817.18
38.2154,3853.76
38.2494,3814.46
38.2834,3841.79
38.3174,3741.92
38.3514,3866.89
38.3854,3823.66
38.4194,3855.2
38.4534,3803.38
38.4874,3805.85
38.5214,3831.94
38.5554,3807.8
38.5894,3898.02
38.6234,3771.4
38.6574,3844.46
38.6914,3824.7
38.7254,3827.66
38.7594,3777.57
38.7934,3875.18
38.8274,3796.26
38.8614,3866.1
38.8954,3829.68
38.9294,3786.46
38.9634,3783.07
38.9974,3868.78
39.0314,3823.95
39.0654,3738.36
39.0994,3734.86
39.1334,3717.38
39.1674,3806.33
39.2014,3800.13
39.2354,3788.08
39.2694,3758.1
39.3034,3751.11
39.3374,3877.82
39.3714,3815.85
39.4054,3849.01
39.4394,3923.67
39.4734,3795.97
39.5074,3857.45
39.5414,3811.45
39.5754,3776.25
39.6094,3820.44
39.6434,3861.54
39.6774,3931.13
39.7114,3940.31
39.7454,3927.85
39.7794,3886.46
39.8134,3918.2
39.8474,4082.75
39.8814,4088.23
39.9154,4142.77
39.9494,4269.87
39.9834,4381.9
40.0174,4569.02
40.0514,4714.33
40.0854,4911.01
40.1194,5076.85
40.1534,5335.6
40.1874,5261.03
40.2214,5088.81
40.2554,4784.33
40.2894,4550.7
40.3234,4473.36
40.3574,4214.48
40.3914,4107.14
40.4254,3987.48
40.4594,3944.87
40.4934,3914.55
40.5274,3870.13
40.5614,3814.12
40.5954,3811.84
40.6294,3894.83
40.6634,3862.16
40.6974,3749.64
40.7314,3817.54
40.7654,3915.13
40.7994,3794.61
40.8334,3726.37
40.8674,3868.68
40.9014,3872.21
40.9354,3770.21
40.9694,3790.15
41.0034,3723.61
41.0374,3801.61
41.0714,3749.2
41.1054,3786.49
41.1394,3754.04
41.1734,3710.36
41.2074,3810.29
41.2414,3703.37
41.2754,3746.3
41.3094,3750.36
41.3434,3695.07
41.3774,3793.15
41.4114,3776.99
41.4454,3676.8
41.4794,3784.68
41.5134,3750.1
41.5474,3770.49
41.5814,3729.24
41.6154,3763.27
41.6494,3674.41
41.6834,3875.47
41.7174,3801.98
41.7514,3746.17
41.7854,3846.99
41.8194,3778.63
41.8534,3719.99
41.8874,3780.51
41.9214,3705.16
41.9554,3732.05
41.9894,3770.46
42.0234,3839.29
42.0574,3768.95
42.0914,3729.62
42.1254,3794.6
42.1594,3784.96
42.1934,3803.76
42.2274,3834.34
42.2614,3839.66
42.2954,3848.76
42.3294,3885.91
42.3634,3928.92
42.3974,3909.64
42.4314,3872.65
42.4654,3880.26
42.4994,3817.13
42.5334,3847.89
42.5674,3777.29
42.6014,3720.31
42.6354,3682.73
42.6694,3630.21
42.7034,3813.65
42.7374,3740.11
42.7714,3742.67
42.8054,3803.35
42.8394,3757.57
42.8734,3703.42
42.9074,3677.01
42.9414,3701.97
42.9754,3767.22
43.0094,3708.22
43.0434,3780.11
43.0774,3697.16
43.1114,3696.88
43.1454,3626.86
43.1794,3720.09
43.2134,3668.65
43.2474,3726.37
43.2814,3748.04
43.3154,3694.25
43.3494,3721.5
43.3834,3645.3
43.4174,3703.1
43.4514,3656.15
43.4854,3684.75
43.5194,3757.39
43.5534,3773.14
43.5874,3714.82
43.6214,3741.11
43.6554,3643.2
43.6894,3727.85
43.7234,3681.78
43.7574,3678.89
43.7914,3584.42
43.8254,3706.44
43.8594,3746.84
43.8934,3675.88
43.9274,3723.54
43.9614,3678.97
43.9954,3746.81
44.0294,3668.8
44.0634,3696.85
44.0974,3606.81
44.1314,3730.2
44.1654,3627.31
44.1994,3636.57
44.2334,3796.14
44.2674,3715.48
44.3014,3760.39
44.3354,3640.76
44.3694,3698.05
44.4034,3644.74
44.4374,3661.17
44.4714,3751.24
44.5054,3674.91
44.5394,3697.98
44.5734,3640.51
44.6074,3733.93
44.6414,3666.78
44.6754,3785.02
44.7094,3640.15
44.7434,3752.47
44.7774,3685.51
44.8114,3690.85
44.8454,3674.65
44.8794,3698.1
44.9134,3693.88
44.9474,3645.51
44.9814,3681.72
45.0154,3613.58
45.0494,3676.9
45.0834,3666.74
45.1174,3631.96
45.1514,3668.89
45.1854,3613.18
45.2194,3745.14
45.2534,3649.32
45.2874,3661.39
45.3214,3624
45.3554,3658.25
45.3894,3674.46
45.4234,3733.31
45.4574,3670.79
45.4914,3655.55
45.5254,3620.8
45.5594,3543.46
45.5934,3708.3
45.6274,3639.61
45.6614,3731.14
45.6954,3503.82
45.7294,3636.13
45.7634,3691.45
45.7974,3611.59
45.8314,3685.4
45.8654,3684.6
45.8994,3727.4
45.9334,3587.25
45.9674,3661.07
46.0014,3659.23
46.0354,3597.34
46.0694,3574.94
46.1034,3617.17
46.1374,3627.57
46.1714,3586.14
46.2054,3632.86
46.2394,3681.44
46.2734,3653.45
46.3074,3611.37
46.3414,3729.33
46.3754,3663.54
46.4094,3676.07
46.4434,3652.73
46.4774,3586.47
46.5114,3536.28
46.5454,3703.97
46.5794,3642
46.6134,3631.04
46.6474,3578.55
46.6814,3580.68
46.7154,3630.71
46.7494,3607.07
46.7834,3613.45
46.8174,3526.81
46.8514,3567.87
46.8854,3664.95
46.9194,3597.85
46.9534,3617.59
46.9874,3613.44
47.0214,3554.26
47.0554,3652.44
47.0894,3622.64
47.1234,3614.9
47.1574,3627.78
47.1914,3614
47.2254,3657.46
47.2594,3559.11
47.2934,3578.7
47.3274,3639.02
47.3614,3600.16
47.3954,3626.38
47.4294,3532.01
47.4634,3558
47.4974,3671.92
47.5314,3619.88
47.5654,3682.78
47.5994,3636.18
47.6334,3500.09
47.6674,3582.43
47.7014,3568.79
47.7354,3617.56
47.7694,3638.42
47.8034,3557.24
47.8374,3605.74
47.8714,3606.42
47.9054,3561.5
47.9394,3630.03
47.9734,3632.28
48.0074,3714.53
48.0414,3648.27
48.0754,3725.69
48.1094,3655.04
48.1434,3698.67
48.1774,3714.81
48.2114,3725.9
48.2454,3746.58
48.2794,3747.95
48.3134,3852.25
48.3474,3715.32
48.3814,3834.11
48.4154,3906.65
48.4494,3931.1
48.4834,4194.42
48.5174,4310.02
48.5514,4446.45
48.5854,4650.76
48.6194,4844.01
48.6534,5060.58
48.6874,5339.33
48.7214,5578.19
48.7554,5997.58
48.7894,5989.82
48.8234,5695.17
48.8574,5315.7
48.8914,4920.41
48.9254,4784.05
48.9594,4512.17
48.9934,4182.96
49.0274,4003.42
49.0614,3868.03
49.0954,3759.05
49.1294,3707.21
49.1634,3661.53
49.1974,3564.78
49.2314,3603.08
49.2654,3595.88
49.2994,3552.91
49.3334,3541.77
49.3674,3618.43
49.4014,3637.33
49.4354,3564.73
49.4694,3606.48
49.5034,3454.91
49.5374,3628.87
49.5714,3532.1
49.6054,3439.06
49.6394,3557.74
49.6734,3551.82
49.7074,3584.78
49.7414,3628.05
49.7754,3621.24
49.8094,3533.92
49.8434,3566.16
49.8774,3558.31
49.9114,3524.79
49.9454,3550.45
49.9794,3619.01
50.0134,3564.16
50.0474,3558.99
50.0814,3586.56
50.1154,3561.12
50.1494,3528.77
50.1834,3568.33
50.2174,3535.6
50.2514,3518.16
50.2854,3584.94
50.3194,3520.25
50.3534,3556.93
50.3874,3561.76
50.4214,3533.88
50.4554,3628.86
50.4894,3486.2
50.5234,3493.95
50.5574,3407.34
50.5914,3494.08
50.6254,3463.34
50.6594,3520.73
50.6934,3518.93
50.7274,3485.59
50.7614,3613.87
50.7954,3492.13
50.8294,3537.49
50.8634,3522.75
50.8974,3548.23
50.9314,3488.89
50.9654,3592.24
50.9994,3515.46
51.0334,3517.28
51.0674,3504.34
51.1014,3550.83
51.1354,3540.09
51.1694,3426.61
51.2034,3439.21
51.2374,3523.32
51.2714,3496.96
51.3054,3448.41
51.3394,3550.33
51.3734,3528.58
51.4074,3457.29
51.4414,3509.56
51.4754,3586.11
51.5094,3464.45
51.5434,3583.3
51.5774,3580.1
51.6114,3532.14
51.6454,3441.15
51.6794,3456.34
51.7134,3496.29
51.7474,3411
51.7814,3466.15
51.8154,3427.3
51.8494,3479.26
51.8834,3470.93
51.9174,3453.65
51.9514,3498.49
51.9854,3467.55
52.0194,3541.93
52.0534,3543.6
52.0874,3513.08
52.1214,3431.44
52.1554,3505.12
52.1894,3486.38
52.2234,3506.53
52.2574,3466.74
52.2914,3456.6
52.3254,3436.08
52.3594,3433.86
52.3934,3422.96
52.4274,3600.9
52.4614,3567.61
52.4954,3420.42
52.5294,3483.22
52.5634,3420.42
52.5974,3496.73
52.6314,3527.62
52.6654,3570.97
52.6994,3507.79
52.7334,3476.08
52.7674,3513.57
52.8014,3579.93
52.8354,3506.13
52.8694,3464.44
52.9034,3550.88
52.9374,3516.81
52.9714,3520.07
53.0054,3483.06
53.0394,3504.46
53.0734,3463.45
53.1074,3479.63
53.1414,3492.95
53.1754,3556.32
53.2094,3441.08
53.2434,3484.89
53.2774,3533.73
53.3114,3529.94
53.3454,3455.7
53.3794,3456.44
53.4134,3417.36
53.4474,3444.79
53.4814,3535.33
53.5154,3469.42
53.5494,3505.42
53.5834,3602.34
53.6174,3493.74
53.6514,3529.58
53.6854,3479.61
53.7194,3622.25
53.7534,3527.09
53.7874,3597.69
53.8214,3572.71
53.8554,3698.39
53.8894,3754.7
53.9234,3759.31
53.9574,3888.54
53.9914,3940.7
54.0254,3988.91
54.0594,4244.78
54.0934,4417.72
54.1274,4616.03
54.1614,4845.96
54.1954,5111.18
54.2294,5398.31
54.2634,5733.84
54.2974,5762.3
54.3314,5522.06
54.3654,5172.4
54.3994,5193.73
54.4334,4951.73
54.4674,4636.43
54.5014,4386.03
54.5354,4190.55
54.5694,4032.3
54.6034,3978.08
54.6374,3808.25
54.6714,3764.77
54.7054,3785.02
54.7394,3712.71
54.7734,3736.36
54.8074,3662.31
54.8414,3571.05
54.8754,3589.71
54.9094,3673.29
54.9434,3594.62
54.9774,3683.39
55.0114,3609.01
55.0454,3490.62
55.0794,3598.34
55.1134,3686.46
55.1474,3690.39
55.1814,3702.09
55.2154,3776.56
55.2494,3717.01
55.2834,3774.04
55.3174,3765.65
55.3514,3843.23
55.3854,3897.53
55.4194,3879.66
55.4534,4033.97
55.4874,3962.25
55.5214,4086.54
55.5554,4071.01
55.5894,4163.63
55.6234,4348.01
55.6574,4320.93
55.6914,4383.87
55.7254,4342.91
55.7594,4293.41
55.7934,4118.59
55.8274,4115.16
55.8614,3999.05
55.8954,3841.47
55.9294,3822.87
55.9634,3667.07
55.9974,3576.26
56.0314,3603.52
56.0654,3557.6
56.0994,3513.81
56.1334,3575.48
56.1674,3514.54
56.2014,3498.31
56.2354,3440.05
56.2694,3495.96
56.3034,3422
56.3374,3461.3
56.3714,3485.83
56.4054,3407.96
56.4394,3324.96
56.4734,3431.88
56.5074,3384.57
56.5414,3406.15
56.5754,3419.78
56.6094,3356.01
56.6434,3396.56
56.6774,3458.64
56.7114,3380.17
56.7454,3456.66
56.7794,3429.36
56.8134,3429.77
56.8474,3418.43
56.8814,3390.35
56.9154,3441.49
56.9494,3376.91
56.9834,3434.74
57.0174,3461.87
57.0514,3386.31
57.0854,3472.24
57.1194,3418.63
57.1534,3325.03
57.1874,3450.06
57.2214,3430.93
57.2554,3415.55
57.2894,3423.51
57.3234,3495.57
57.3574,3496.58
57.3914,3360.75
57.4254,3397.73
57.4594,3473.43
57.4934,3392.65
57.5274,3333.85
57.5614,3376.17
57.5954,3433.62
57.6294,3477.06
57.6634,3373.21
57.6974,3423.34
57.7314,3412.35
57.7654,3436.98
57.7994,3389
57.8334,3354.57
57.8674,3345.3
57.9014,3440.15
57.9354,3427.31
57.9694,3358.76
58.0034,3409.85
58.0374,3347
58.0714,3420.27
58.1054,3372.49
58.1394,3430.85
58.1734,3391.54
58.2074,3417
58.2414,3461.12
58.2754,3449.57
58.3094,3409.81
58.3434,3528.68
58.3774,3398.43
58.4114,3371.75
58.4454,3539.21
58.4794,3369.34
58.5134,3321.72
58.5474,3416.11
58.5814,3379.1
58.6154,3421.54
58.6494,3484.65
58.6834,3406.82
58.7174,3419.53
58.7514,3511.28
58.7854,3378.97
58.8194,3429.78
58.8534,3501.12
58.8874,3483.29
58.9214,3474.92
58.9554,3483.77
58.9894,3535.43
59.0234,3603.87
59.0574,3621.98
59.0914,3659.28
59.1254,3596.9
59.1594,3662.92
59.1934,3603.4
59.2274,3521.56
59.2614,3497.34
59.2954,3517.07
59.3294,3513.34
59.3634,3535.75
59.3974,3488.19
59.4314,3438.45
59.4654,3479.62
59.4994,3439.67
59.5334,3407.47
59.5674,3349.86
59.6014,3325.05
59.6354,3461.75
59.6694,3347.63
59.7034,3376.4
59.7374,3380.98
59.7714,3462.88
59.8054,3350.03
59.8394,3361.81
59.8734,3424.91
59.9074,3396
59.9414,3424.39
59.9754,3430
60.0094,3453.24
60.0434,3453.92
60.0774,3450.43
60.1114,3440.95
60.1454,3379.68
60.1794,3308.57
60.2134,3482.33
60.2474,3455.48
60.2814,3504.55
60.3154,3437.53
60.3494,3368.02
60.3834,3446.15
60.4174,3473.17
60.4514,3493.41
60.4854,3539.12
60.5194,3416.39
60.5534,3521.18
60.5874,3418.54
60.6214,3508.91
60.6554,3422.38
60.6894,3508.72
60.7234,3533.45
60.7574,3591.33
60.7914,3539.28
60.8254,3632.58
60.8594,3628.68
60.8934,3660.29
60.9274,3688.97
60.9614,3735.43
60.9954,3746.13
61.0294,3865.71
61.0634,3766.75
61.0974,3923.44
61.1314,3970.25
61.1654,3876.01
61.1994,3874.09
61.2334,3686.3
61.2674,3770.71
61.3014,3745.78
61.3354,3749.08
61.3694,3674.94
61.4034,3598
61.4374,3732.14
61.4714,3604.1
61.5054,3643.14
61.5394,3600.46
61.5734,3628.64
61.6074,3782.85
61.6414,3774.53
61.6754,3734.54
61.7094,3726.65
61.7434,3861.59
61.7774,3831.41
61.8114,3760.34
61.8454,3725.49
61.8794,3700.87
61.9134,3669.5
61.9474,3668.82
61.9814,3634.55
62.0154,3552.19
62.0494,3510.54
62.0834,3469.27
62.1174,3519.58
62.1514,3475.88
62.1854,3352.12
62.2194,3355.28
62.2534,3376.17
62.2874,3407.67
62.3214,3552.13
62.3554,3480.03
62.3894,3434.39
62.4234,3408.67
62.4574,3368.12
62.4914,3409.63
62.5254,3369.44
62.5594,3468.23
62.5934,3330.71
62.6274,3512.43
62.6614,3356.59
62.6954,3401.35
62.7294,3423.56
62.7634,3347.37
62.7974,3417.51
62.8314,3395.38
62.8654,3346.29
62.8994,3382.63
62.9334,3354.62
62.9674,3384.59
63.0014,3430.82
63.0354,3388.74
63.0694,3363.26
63.1034,3379.89
63.1374,3395.33
63.1714,3364.55
63.2054,3327.54
63.2394,3410.16
63.2734,3318.85
63.3074,3358.26
63.3414,3374.78
63.3754,3410.59
63.4094,3420.89
63.4434,3409.53
63.4774,3321.11
63.5114,3414.45
63.5454,3345.17
63.5794,3300.71
63.6134,3343.46
63.6474,3465.92
63.6814,3357.13
63.7154,3300.32
63.7494,3385.07
63.7834,3395.17
63.8174,3438.54
63.8514,3315.86
63.8854,3376.11
63.9194,3370.5
63.9534,3413.29
63.9874,3451.86
64.0214,3341.8
64.0554,3385.25
64.0894,3291.52
64.1234,3227.77
64.1574,3318.76
64.1914,3458.77
64.2254,3235.48
64.2594,3348
64.2934,3352.46
64.3274,3298.35
64.3614,3440.71
64.3954,3416.32
64.4294,3331.66
64.4634,3266.23
64.4974,3313.26
64.5314,3328.5
64.5654,3370.99
64.5994,3298.03
64.6334,3378.39
64.6674,3365.3
64.7014,3447.87
64.7354,3429.72
64.7694,3387.65
64.8034,3408.76
64.8374,3438.66
64.8714,3456.3
64.9054,3439.43
64.9394,3468.21
64.9734,3346.85
65.0074,3446
65.0414,3434.45
65.0754,3493.01
65.1094,3356.14
65.1434,3390.27
65.1774,3450.85
65.2114,3318.76
65.2454,3404.94
65.2794,3319.44
65.3134,3446.42
65.3474,3361.09
65.3814,3353.6
65.4154,3294.53
65.4494,3258.35
65.4834,3315.08
65.5174,3319.4
65.5514,3327.08
65.5854,3368.81
65.6194,3355.52
65.6534,3320.42
65.6874,3287.3
65.7214,3343.69
65.7554,3392.86
65.7894,3333.34
65.8234,3438.67
65.8574,3378.29
65.8914,3263.32
65.9254,3280.31
65.9594,3306.53
65.9934,3266.17
66.0274,3305.16
66.0614,3287.7
66.0954,3325.18
66.1294,3476.46
66.1634,3350.73
66.1974,3257.76
66.2314,3411.25
66.2654,3289.62
66.2994,3341.93
66.3334,3343.64
66.3674,3313.96
66.4014,3327.53
66.4354,3376.07
66.4694,3294.06
66.5034,3335.5
66.5374,3299.15
66.5714,3384.51
66.6054,3308.51
66.6394,3346.25
66.6734,3329.83
66.7074,3251.55
66.7414,3380.28
66.7754,3318.11
66.8094,3355.22
66.8434,3340.99
66.8774,3406.55
66.9114,3359.15
66.9454,3346.45
66.9794,3347.81
67.0134,3351.4
67.0474,3386.96
67.0814,3282.26
67.1154,3273.82
67.1494,3295
67.1834,3336.29
67.2174,3381.28
67.2514,3355.8
67.2854,3377.5
67.3194,3307.98
67.3534,3310.65
67.3874,3339.64
67.4214,3322.43
67.4554,3417.43
67.4894,3359.59
67.5234,3417.04
67.5574,3367.28
67.5914,3244.97
67.6254,3349.39
67.6594,3413.14
67.6934,3285.3
67.7274,3330.82
67.7614,3361.78
67.7954,3310.24
67.8294,3289.78
67.8634,3398.37
67.8974,3336.86
67.9314,3310.94
67.9654,3292.98
67.9994,3373.19
68.0334,3293.37
68.0674,3377.32
68.1014,3391.6
68.1354,3285.82
68.1694,3209.57
68.2034,3321.39
68.2374,3309.97
68.2714,3311.4
68.3054,3415.71
68.3394,3209.3
68.3734,3287.35
68.4074,3427.7
68.4414,3342.73
68.4754,3343.6
68.5094,3275.59
68.5434,3280.46
68.5774,3343.44
68.6114,3345.85
68.6454,3305.05
68.6794,3344.2
68.7134,3315.97
68.7474,3360.55
68.7814,3286.08
68.8154,3316.95
68.8494,3374.64
68.8834,3280.81
68.9174,3327.13
68.9514,3377.67
68.9854,3394.65
69.0194,3327.4
69.0534,3478.12
69.0874,3350.81
69.1214,3387.61
69.1554,3332.59
69.1894,3366.78
69.2234,3327.17
69.2574,3303.34
69.2914,3341.07
69.3254,3278.36
69.3594,3304.02
69.3934,3312.02
69.4274,3308.95
69.4614,3341.59
69.4954,3347.69
69.5294,3312.76
69.5634,3344.61
69.5974,3308.69
69.6314,3381.2
69.6654,3310.63
69.6994,3396.38
69.7334,3310.74
69.7674,3394.86
69.8014,3344.51
69.8354,3356.19
69.8694,3424.85
69.9034,3423.47
69.9374,3500.48
69.9714,3456.3
69.9884,3469.7