File: herald_visualization/Delia_Scripts/MnF3/MnF3_1to1_KS6Lgraphite/20mins/240925-MnF3_1to1_KS6Lgraphite-20min_milled-20-70deg_40min.csv
2Theta,Intensity
20.0254,7834.28
20.0594,7758.41
20.0934,7823.32
20.1274,7912.12
20.1614,7763.31
20.1954,7667.56
20.2294,7733.71
20.2634,7736.37
20.2974,7638.78
20.3314,7608.9
20.3654,7608.04
20.3994,7495.32
20.4334,7370.01
20.4674,7350.12
20.5014,7435.75
20.5354,7441.77
20.5694,7472.87
20.6034,7274.86
20.6374,7296.38
20.6714,7303.9
20.7054,7332.66
20.7394,7259.27
20.7734,7334.79
20.8074,7134.5
20.8414,7203.64
20.8754,7235.3
20.9094,7143.47
20.9434,7134.71
20.9774,7128.61
21.0114,6836.81
21.0454,6954.5
21.0794,7153.45
21.1134,6913.7
21.1474,6930.52
21.1814,6783.39
21.2154,6920.56
21.2494,6867.69
21.2834,6850.54
21.3174,6807.8
21.3514,6860.26
21.3854,6741.91
21.4194,6917.19
21.4534,6804.25
21.4874,6702.84
21.5214,6753.09
21.5554,6679.98
21.5894,6548.05
21.6234,6563.89
21.6574,6664.97
21.6914,6573.74
21.7254,6511.38
21.7594,6588.48
21.7934,6604.33
21.8274,6499.22
21.8614,6361.08
21.8954,6412.2
21.9294,6452.52
21.9634,6473.58
21.9974,6280.44
22.0314,6189.73
22.0654,6417.5
22.0994,6305.62
22.1334,6284.47
22.1674,6296.03
22.2014,6315.41
22.2354,6310.03
22.2694,6176.71
22.3034,6200.64
22.3374,6237.52
22.3714,6188.93
22.4054,6087.3
22.4394,6142.4
22.4734,6056.23
22.5074,6005.73
22.5414,6162.52
22.5754,6056.8
22.6094,6087.06
22.6434,6016.99
22.6774,5987.91
22.7114,6083.51
22.7454,6049.58
22.7794,6218.62
22.8134,6071.58
22.8474,6070.59
22.8814,6126.03
22.9154,6119.22
22.9494,6045.7
22.9834,6235.64
23.0174,6145.9
23.0514,6444.43
23.0854,6212.4
23.1194,6263.4
23.1534,6215.17
23.1874,6213.62
23.2214,6103.09
23.2554,6160.7
23.2894,6285.5
23.3234,6277.31
23.3574,6453.21
23.3914,6317.23
23.4254,6418.84
23.4594,6529.17
23.4934,6670.25
23.5274,6744.42
23.5614,6831.39
23.5954,7099.92
23.6294,7301.14
23.6634,7641.95
23.6974,7821.17
23.7314,8154.9
23.7654,8409
23.7994,8842.38
23.8334,9412.88
23.8674,9455.74
23.9014,9933.1
23.9354,10175.1
23.9694,10418
24.0034,10413.3
24.0374,10314.5
24.0714,10292.9
24.1054,10200.2
24.1394,9959.06
24.1734,9741.91
24.2074,9392.19
24.2414,9274.91
24.2754,8941.67
24.3094,8829.26
24.3434,8496.49
24.3774,8404.85
24.4114,8044.97
24.4454,7848.4
24.4794,7635.65
24.5134,7486.58
24.5474,7162.38
24.5814,6850.13
24.6154,6719.15
24.6494,6499.5
24.6834,6434.91
24.7174,6233.86
24.7514,6075.32
24.7854,5951.29
24.8194,5826.61
24.8534,5644.26
24.8874,5548.71
24.9214,5608.72
24.9554,5488.28
24.9894,5432.24
25.0234,5389.81
25.0574,5320.58
25.0914,5403.32
25.1254,5276.81
25.1594,5298.25
25.1934,5268.19
25.2274,5146.33
25.2614,5149.28
25.2954,5157.69
25.3294,5239.08
25.3634,5124.42
25.3974,5139.24
25.4314,5144.8
25.4654,5094.25
25.4994,5117
25.5334,5090.51
25.5674,5025.03
25.6014,5070.01
25.6354,5089.24
25.6694,5150.78
25.7034,5008.82
25.7374,5031.81
25.7714,5039.57
25.8054,4960.91
25.8394,5065.95
25.8734,5032.25
25.9074,5029.82
25.9414,4912.14
25.9754,4817.48
26.0094,4912.17
26.0434,4958.19
26.0774,4884.47
26.1114,4970.23
26.1454,5037.62
26.1794,4962.84
26.2134,4919.99
26.2474,4960.37
26.2814,5016.6
26.3154,5039.32
26.3494,4967.01
26.3834,4873.88
26.4174,5116.73
26.4514,5043.39
26.4854,5070.38
26.5194,5023.08
26.5534,5046.73
26.5874,4946.93
26.6214,4996.46
26.6554,4930.89
26.6894,4970.59
26.7234,4943.42
26.7574,4933.78
26.7914,4806.4
26.8254,4886.35
26.8594,4929.37
26.8934,4903.11
26.9274,4839.82
26.9614,4797.24
26.9954,4962.03
27.0294,4862.71
27.0634,4866.62
27.0974,4848.9
27.1314,4787.9
27.1654,4835.27
27.1994,4745.91
27.2334,4815.39
27.2674,4795.6
27.3014,4690.3
27.3354,4686.92
27.3694,4682.14
27.4034,4747.53
27.4374,4663.95
27.4714,4593.58
27.5054,4577.89
27.5394,4649.28
27.5734,4501.9
27.6074,4559.38
27.6414,4543.19
27.6754,4646
27.7094,4419.4
27.7434,4513.83
27.7774,4591.46
27.8114,4385.26
27.8454,4466.3
27.8794,4375.05
27.9134,4521.14
27.9474,4311.79
27.9814,4350.5
28.0154,4274.04
28.0494,4346.55
28.0834,4312.58
28.1174,4472.76
28.1514,4441.76
28.1854,4400.89
28.2194,4372.3
28.2534,4437.79
28.2874,4344.43
28.3214,4434.61
28.3554,4380.93
28.3894,4376.34
28.4234,4374.73
28.4574,4268.85
28.4914,4281.52
28.5254,4305.51
28.5594,4381.63
28.5934,4321.37
28.6274,4320.29
28.6614,4381.82
28.6954,4268.59
28.7294,4300.59
28.7634,4296.2
28.7974,4245.53
28.8314,4207.71
28.8654,4293.98
28.8994,4384.11
28.9334,4281.74
28.9674,4265.36
29.0014,4265.06
29.0354,4204.88
29.0694,4234.88
29.1034,4245.26
29.1374,4298.26
29.1714,4146.75
29.2054,4232.56
29.2394,4156.89
29.2734,4232.29
29.3074,4112.6
29.3414,4097.75
29.3754,4117.56
29.4094,4137.82
29.4434,4005.76
29.4774,4100.75
29.5114,4170.28
29.5454,4098.57
29.5794,4131.09
29.6134,4018
29.6474,4065.58
29.6814,4069.85
29.7154,4013.9
29.7494,4068.4
29.7834,4088.87
29.8174,4063.94
29.8514,4044.31
29.8854,3960.01
29.9194,4056.33
29.9534,3894.41
29.9874,3946.43
30.0214,3966.82
30.0554,3911.57
30.0894,3880.7
30.1234,3947.19
30.1574,4003.19
30.1914,3980.65
30.2254,3944.39
30.2594,3894.52
30.2934,3902
30.3274,3890.06
30.3614,3829.63
30.3954,3929.58
30.4294,3952.87
30.4634,3832.4
30.4974,3833.3
30.5314,3900.82
30.5654,3910.38
30.5994,3958.18
30.6334,3899.56
30.6674,3936.66
30.7014,3840.44
30.7354,3864.7
30.7694,3738.53
30.8034,3811.08
30.8374,3804.04
30.8714,3747.4
30.9054,3824.75
30.9394,3763.28
30.9734,3807.32
31.0074,3813.07
31.0414,3785.69
31.0754,3828.21
31.1094,3733.79
31.1434,3730.69
31.1774,3718
31.2114,3770.44
31.2454,3746.93
31.2794,3823.53
31.3134,3733.95
31.3474,3800.46
31.3814,3725.92
31.4154,3678.22
31.4494,3744.81
31.4834,3809.7
31.5174,3699.67
31.5514,3712.4
31.5854,3739.51
31.6194,3639.16
31.6534,3730.7
31.6874,3723.76
31.7214,3659.02
31.7554,3613.69
31.7894,3685.21
31.8234,3621.82
31.8574,3790.88
31.8914,3723.61
31.9254,3691.3
31.9594,3637.08
31.9934,3769.42
32.0274,3721.29
32.0614,3694.03
32.0954,3711.91
32.1294,3695.19
32.1634,3835.99
32.1974,3743.13
32.2314,3705.59
32.2654,3705.66
32.2994,3687.91
32.3334,3707.74
32.3674,3794.56
32.4014,3738.36
32.4354,3829.08
32.4694,3767.15
32.5034,3809
32.5374,3852.99
32.5714,3915.31
32.6054,3927.12
32.6394,3937.41
32.6734,3933.69
32.7074,3913.77
32.7414,3802.91
32.7754,3946.22
32.8094,3955.98
32.8434,3839.86
32.8774,3763.25
32.9114,3880.57
32.9454,3878.35
32.9794,3800.75
33.0134,3782.3
33.0474,3821.63
33.0814,3908.72
33.1154,3789.34
33.1494,3780.47
33.1834,3737.11
33.2174,3725.57
33.2514,3846.61
33.2854,3738.46
33.3194,3789
33.3534,3875.01
33.3874,3844.46
33.4214,3784.8
33.4554,3800.67
33.4894,3839.53
33.5234,3826.77
33.5574,3803.14
33.5914,3734.57
33.6254,3865.46
33.6594,3842.9
33.6934,3985
33.7274,3823.1
33.7614,3800.2
33.7954,3796.88
33.8294,3925.68
33.8634,3891.93
33.8974,3903.83
33.9314,4034.2
33.9654,3909.87
33.9994,3993.81
34.0334,3872.49
34.0674,3846.23
34.1014,3783.88
34.1354,3748.97
34.1694,3768.25
34.2034,3796.34
34.2374,3698.68
34.2714,3665.25
34.3054,3653.67
34.3394,3638.52
34.3734,3645.23
34.4074,3645.98
34.4414,3645.41
34.4754,3618.65
34.5094,3620.84
34.5434,3595.63
34.5774,3420.07
34.6114,3572.4
34.6454,3581.69
34.6794,3539.49
34.7134,3559.56
34.7474,3564.14
34.7814,3485.05
34.8154,3570.54
34.8494,3522.42
34.8834,3584.26
34.9174,3623.91
34.9514,3539.4
34.9854,3496.97
35.0194,3604.07
35.0534,3479.59
35.0874,3488.9
35.1214,3510.23
35.1554,3509.66
35.1894,3505.58
35.2234,3466.97
35.2574,3485.1
35.2914,3523.89
35.3254,3381.4
35.3594,3488.27
35.3934,3557.44
35.4274,3408.76
35.4614,3427.85
35.4954,3427.25
35.5294,3394.32
35.5634,3427.62
35.5974,3411.46
35.6314,3389.09
35.6654,3361.29
35.6994,3428.57
35.7334,3466.27
35.7674,3413.36
35.8014,3367.75
35.8354,3344.21
35.8694,3400.28
35.9034,3308.32
35.9374,3313.49
35.9714,3324.92
36.0054,3237.05
36.0394,3269.93
36.0734,3245.95
36.1074,3291.58
36.1414,3367.21
36.1754,3191.28
36.2094,3279.52
36.2434,3238.5
36.2774,3200.67
36.3114,3211.92
36.3454,3212
36.3794,3212.41
36.4134,3201.66
36.4474,3245.46
36.4814,3222.52
36.5154,3233.03
36.5494,3186.59
36.5834,3249.98
36.6174,3217.78
36.6514,3186.23
36.6854,3080.15
36.7194,3094.08
36.7534,3169.67
36.7874,3113.79
36.8214,3214.66
36.8554,3144.33
36.8894,3129
36.9234,3181.91
36.9574,3125.16
36.9914,3180.65
37.0254,3223.06
37.0594,3146.91
37.0934,3192.42
37.1274,3189.33
37.1614,3190.83
37.1954,3176.11
37.2294,3113.68
37.2634,3065.64
37.2974,3243.28
37.3314,3178.95
37.3654,3193.15
37.3994,3126.4
37.4334,3107.38
37.4674,3160.84
37.5014,3170.21
37.5354,3096.22
37.5694,3133.11
37.6034,3103.94
37.6374,3166.01
37.6714,3268.06
37.7054,3144.5
37.7394,3155.24
37.7734,3210.62
37.8074,3104.96
37.8414,3109.6
37.8754,3179.48
37.9094,3087.54
37.9434,3053.4
37.9774,3061.3
38.0114,3136.53
38.0454,3131.65
38.0794,3161.91
38.1134,3109.16
38.1474,3166.32
38.1814,3120.74
38.2154,3087.97
38.2494,3101.92
38.2834,3166.16
38.3174,3173.59
38.3514,3104.3
38.3854,3097.54
38.4194,3044.94
38.4534,3061.08
38.4874,3132.46
38.5214,3149.29
38.5554,3094.7
38.5894,3097.12
38.6234,3127.65
38.6574,3027.74
38.6914,3028.57
38.7254,3149.12
38.7594,3168.96
38.7934,3141.59
38.8274,3066.18
38.8614,3064.84
38.8954,3156.61
38.9294,2995.5
38.9634,3059.34
38.9974,3116.21
39.0314,3202.64
39.0654,3075.37
39.0994,3073.65
39.1334,3126.4
39.1674,3228.47
39.2014,3123.99
39.2354,3185.61
39.2694,3167.19
39.3034,3185.3
39.3374,3124.08
39.3714,3280.4
39.4054,3164.84
39.4394,3139.88
39.4734,3272.85
39.5074,3140.16
39.5414,3342.42
39.5754,3259.24
39.6094,3404.11
39.6434,3274.48
39.6774,3371.24
39.7114,3320.02
39.7454,3368.59
39.7794,3349.64
39.8134,3324.56
39.8474,3415.82
39.8814,3354.69
39.9154,3393.45
39.9494,3374.53
39.9834,3412.16
40.0174,3404.88
40.0514,3381.3
40.0854,3368.67
40.1194,3289.97
40.1534,3338.36
40.1874,3307.52
40.2214,3398.79
40.2554,3308.96
40.2894,3350.37
40.3234,3334.23
40.3574,3279.89
40.3914,3224.93
40.4254,3333.28
40.4594,3446.51
40.4934,3288.62
40.5274,3287.23
40.5614,3340.55
40.5954,3344.68
40.6294,3407.49
40.6634,3281.2
40.6974,3353.57
40.7314,3289.92
40.7654,3326.62
40.7994,3346.61
40.8334,3446.48
40.8674,3375.42
40.9014,3418.79
40.9354,3353.46
40.9694,3465.07
41.0034,3493.88
41.0374,3341.46
41.0714,3422.1
41.1054,3393.36
41.1394,3498.95
41.1734,3444.45
41.2074,3380.37
41.2414,3374.35
41.2754,3464.47
41.3094,3392.48
41.3434,3290.73
41.3774,3376.25
41.4114,3372.26
41.4454,3421.09
41.4794,3381.57
41.5134,3248.79
41.5474,3382.31
41.5814,3245.52
41.6154,3245.82
41.6494,3118.41
41.6834,3321.22
41.7174,3141.1
41.7514,3045.95
41.7854,3145.71
41.8194,3217.83
41.8534,3171.49
41.8874,3146.36
41.9214,3206.68
41.9554,3136.76
41.9894,3152
42.0234,3039.7
42.0574,3022.64
42.0914,3082.19
42.1254,3095.43
42.1594,3038.26
42.1934,3069.76
42.2274,3025.91
42.2614,3007.37
42.2954,3076.72
42.3294,3109.05
42.3634,3068.68
42.3974,3051.2
42.4314,3017.34
42.4654,3031.83
42.4994,3112.01
42.5334,3103.89
42.5674,3103.31
42.6014,3064.47
42.6354,3050.48
42.6694,3086.37
42.7034,2949.35
42.7374,3014.1
42.7714,3012.89
42.8054,3028.77
42.8394,3073.78
42.8734,3021.27
42.9074,3042.51
42.9414,3034.46
42.9754,3033.45
43.0094,3082.9
43.0434,2970.53
43.0774,3045.01
43.1114,3090.13
43.1454,2957.27
43.1794,3034.07
43.2134,3045.5
43.2474,3044.03
43.2814,3129.1
43.3154,3185.57
43.3494,3169.01
43.3834,3261.94
43.4174,3289.91
43.4514,3543.85
43.4854,3492.05
43.5194,3634.54
43.5534,3676.32
43.5874,3686.38
43.6214,3557.14
43.6554,3684.25
43.6894,3515.86
43.7234,3473.16
43.7574,3456.09
43.7914,3289.97
43.8254,3216.3
43.8594,3126.87
43.8934,3132.5
43.9274,3105.25
43.9614,3102.8
43.9954,3071.73
44.0294,3017.5
44.0634,3090.86
44.0974,2984.93
44.1314,3037.24
44.1654,2943.81
44.1994,3054.81
44.2334,3053.97
44.2674,3060.17
44.3014,3075.27
44.3354,3077.72
44.3694,3014.25
44.4034,3089.12
44.4374,3077.81
44.4714,2985.86
44.5054,3027.26
44.5394,3053.4
44.5734,2979.77
44.6074,2958.02
44.6414,3098.61
44.6754,3044.58
44.7094,2892.39
44.7434,2990.56
44.7774,2853.55
44.8114,2871.38
44.8454,2977.79
44.8794,2916.49
44.9134,2836.4
44.9474,2859.24
44.9814,2822.76
45.0154,2921.38
45.0494,2801.85
45.0834,2936.41
45.1174,2839.72
45.1514,2892.56
45.1854,2884.88
45.2194,2824.83
45.2534,2845.45
45.2874,2811.94
45.3214,2891.36
45.3554,2819.27
45.3894,2784.46
45.4234,2855.7
45.4574,2896.9
45.4914,2810.33
45.5254,2757.4
45.5594,2806.76
45.5934,2794.29
45.6274,2806.41
45.6614,2753.57
45.6954,2792.99
45.7294,2851
45.7634,2832.5
45.7974,2752.35
45.8314,2810.61
45.8654,2873.11
45.8994,2786.8
45.9334,2840.81
45.9674,2843.36
46.0014,2793.16
46.0354,2792.77
46.0694,2841.92
46.1034,2734.66
46.1374,2767.68
46.1714,2760.69
46.2054,2836.66
46.2394,2816.84
46.2734,2833.21
46.3074,2773.19
46.3414,2774.24
46.3754,2802.8
46.4094,2859.04
46.4434,2807.54
46.4774,2842.26
46.5114,2845.06
46.5454,2736.93
46.5794,2809.29
46.6134,2768.22
46.6474,2782.3
46.6814,2823.79
46.7154,2800.39
46.7494,2783.88
46.7834,2813.75
46.8174,2866.83
46.8514,2844.91
46.8854,2804.55
46.9194,2840.58
46.9534,2807.29
46.9874,2799.58
47.0214,2922.17
47.0554,2871.93
47.0894,2801.42
47.1234,2783.17
47.1574,2803.5
47.1914,2809.3
47.2254,2794.9
47.2594,2806.59
47.2934,2789.07
47.3274,2771.96
47.3614,2722.61
47.3954,2803.19
47.4294,2846.46
47.4634,2774.96
47.4974,2798.24
47.5314,2823.33
47.5654,2801.47
47.5994,2763.84
47.6334,2735.41
47.6674,2804.95
47.7014,2780.96
47.7354,2777.39
47.7694,2765.14
47.8034,2844.8
47.8374,2815.39
47.8714,2819.19
47.9054,2826.32
47.9394,2729.93
47.9734,2829.81
48.0074,2870.5
48.0414,2803.12
48.0754,2849.53
48.1094,2823.36
48.1434,2810.91
48.1774,2849.4
48.2114,2864.94
48.2454,2877.13
48.2794,2832.68
48.3134,2914.16
48.3474,2909.83
48.3814,2802.82
48.4154,2857.58
48.4494,2929.95
48.4834,2914.78
48.5174,2900.62
48.5514,2987.26
48.5854,3028.08
48.6194,2900.04
48.6534,2990.97
48.6874,3086.53
48.7214,3043.18
48.7554,3031.23
48.7894,3061.28
48.8234,3075.42
48.8574,3163.92
48.8914,3195.24
48.9254,3190.41
48.9594,3084.51
48.9934,3209.62
49.0274,3268.93
49.0614,3282.99
49.0954,3253.21
49.1294,3218.28
49.1634,3268.9
49.1974,3251.41
49.2314,3226.29
49.2654,3269.27
49.2994,3169.92
49.3334,3182.06
49.3674,3196.07
49.4014,3133.16
49.4354,3129.5
49.4694,3175.67
49.5034,3159.18
49.5374,3149.87
49.5714,3046.19
49.6054,3176.8
49.6394,3096.41
49.6734,3083.77
49.7074,3151.54
49.7414,3041.67
49.7754,3094.94
49.8094,3057.38
49.8434,3092.9
49.8774,3144.79
49.9114,3022.22
49.9454,3069.05
49.9794,3015.22
50.0134,3047.38
50.0474,3076.69
50.0814,3035.92
50.1154,3022.58
50.1494,3037.49
50.1834,2950.64
50.2174,3051.11
50.2514,3006.78
50.2854,3055.34
50.3194,3065.73
50.3534,3019.19
50.3874,2977.62
50.4214,2981.14
50.4554,2998.82
50.4894,2927.42
50.5234,2946.27
50.5574,2996.61
50.5914,2864.48
50.6254,2872.86
50.6594,2867.52
50.6934,2951.4
50.7274,2905.87
50.7614,2947.22
50.7954,2856.52
50.8294,2851
50.8634,2842.08
50.8974,2830.8
50.9314,2763.6
50.9654,2795.65
50.9994,2791.11
51.0334,2765.52
51.0674,2795.2
51.1014,2799.44
51.1354,2734.74
51.1694,2777.01
51.2034,2732.6
51.2374,2757.44
51.2714,2751.47
51.3054,2675.55
51.3394,2728.17
51.3734,2718.58
51.4074,2679.59
51.4414,2743.25
51.4754,2629.2
51.5094,2642.26
51.5434,2712.2
51.5774,2771.02
51.6114,2717.04
51.6454,2731.54
51.6794,2711.03
51.7134,2673.12
51.7474,2665.61
51.7814,2703.92
51.8154,2638.09
51.8494,2660.86
51.8834,2628.34
51.9174,2689.76
51.9514,2685.43
51.9854,2679
52.0194,2647.44
52.0534,2648.89
52.0874,2526.06
52.1214,2721.62
52.1554,2605.95
52.1894,2678.7
52.2234,2622.13
52.2574,2747.72
52.2914,2676.55
52.3254,2803.13
52.3594,2690.12
52.3934,2672.43
52.4274,2719.48
52.4614,2741.74
52.4954,2676.23
52.5294,2763.36
52.5634,2774.27
52.5974,2814.39
52.6314,2788.35
52.6654,2688.98
52.6994,2738.95
52.7334,2756.5
52.7674,2728.58
52.8014,2786.53
52.8354,2774.41
52.8694,2776.7
52.9034,2813.07
52.9374,2813.94
52.9714,2861.03
53.0054,2806.12
53.0394,2778.67
53.0734,2854.41
53.1074,2825.65
53.1414,2908.96
53.1754,2848.87
53.2094,2946
53.2434,2910.55
53.2774,2918.95
53.3114,2872.81
53.3454,3009.81
53.3794,2969.4
53.4134,3000.95
53.4474,2913.21
53.4814,2909.32
53.5154,2839.9
53.5494,3014.71
53.5834,2964.41
53.6174,2883.47
53.6514,2881.99
53.6854,2872.37
53.7194,2865.31
53.7534,2884.45
53.7874,2934.97
53.8214,2974.05
53.8554,2909.8
53.8894,2849.69
53.9234,2928.75
53.9574,2848.34
53.9914,2856.18
54.0254,2985.12
54.0594,2978
54.0934,2960.56
54.1274,2898.68
54.1614,2890.15
54.1954,2930.78
54.2294,2894
54.2634,3027.97
54.2974,2990.43
54.3314,3050.03
54.3654,2984.38
54.3994,2950.89
54.4334,3090
54.4674,3016.83
54.5014,3127.64
54.5354,3023.99
54.5694,3067.37
54.6034,3078.04
54.6374,3163.33
54.6714,3085.27
54.7054,3148.92
54.7394,3142.98
54.7734,3159.28
54.8074,3123.16
54.8414,3166.8
54.8754,3107.46
54.9094,3221.95
54.9434,3179.92
54.9774,3262.89
55.0114,3133.37
55.0454,3205.64
55.0794,3124.79
55.1134,3257.95
55.1474,3122.99
55.1814,3039.61
55.2154,3058.32
55.2494,3082.39
55.2834,3120.89
55.3174,3073.5
55.3514,3128.68
55.3854,3161.34
55.4194,3090.64
55.4534,3095.69
55.4874,3019.48
55.5214,3010.91
55.5554,3089.26
55.5894,2971.36
55.6234,3115.23
55.6574,3093.17
55.6914,3066.93
55.7254,3009.22
55.7594,2994.78
55.7934,3037.41
55.8274,3009.52
55.8614,2936.96
55.8954,3016.02
55.9294,2944.62
55.9634,2927.04
55.9974,2990.47
56.0314,2910.18
56.0654,2962.38
56.0994,2938.23
56.1334,2861.93
56.1674,2876.31
56.2014,2905.53
56.2354,2841.01
56.2694,2856.81
56.3034,2885.69
56.3374,2814.43
56.3714,2872.91
56.4054,2866.7
56.4394,2792
56.4734,2878.79
56.5074,2858.31
56.5414,2809.89
56.5754,2857.51
56.6094,2892.57
56.6434,2868.7
56.6774,2850.73
56.7114,2821.31
56.7454,2844.44
56.7794,2843.64
56.8134,2822.34
56.8474,2790.61
56.8814,2881.53
56.9154,2841.7
56.9494,2812.53
56.9834,2813.05
57.0174,2870.44
57.0514,2880.17
57.0854,2846.28
57.1194,2816.6
57.1534,2883.25
57.1874,2816.6
57.2214,2777.51
57.2554,2843.8
57.2894,2872.96
57.3234,2856.95
57.3574,2963.58
57.3914,2742.21
57.4254,2790.25
57.4594,2815.56
57.4934,2734.32
57.5274,2784.38
57.5614,2845.2
57.5954,2772.54
57.6294,2718.52
57.6634,2706.13
57.6974,2712.59
57.7314,2775.42
57.7654,2758.39
57.7994,2678.22
57.8334,2683.34
57.8674,2714.91
57.9014,2741.16
57.9354,2681.28
57.9694,2747.3
58.0034,2703.93
58.0374,2651.2
58.0714,2698.6
58.1054,2720.43
58.1394,2659.84
58.1734,2727.82
58.2074,2656.99
58.2414,2665.85
58.2754,2644.94
58.3094,2685.28
58.3434,2706.95
58.3774,2682.21
58.4114,2632.86
58.4454,2679.64
58.4794,2716.51
58.5134,2713.18
58.5474,2701.76
58.5814,2635.41
58.6154,2686.85
58.6494,2558.92
58.6834,2548.27
58.7174,2602.94
58.7514,2605.53
58.7854,2648.82
58.8194,2639.03
58.8534,2610.77
58.8874,2560.9
58.9214,2670.69
58.9554,2599.8
58.9894,2629.53
59.0234,2573.7
59.0574,2568.39
59.0914,2619.17
59.1254,2589.85
59.1594,2580.24
59.1934,2560.32
59.2274,2602.36
59.2614,2617.27
59.2954,2579.21
59.3294,2459.82
59.3634,2641.59
59.3974,2580.87
59.4314,2660.87
59.4654,2529.48
59.4994,2592.83
59.5334,2573.96
59.5674,2636.03
59.6014,2633.15
59.6354,2512.1
59.6694,2562.37
59.7034,2587.15
59.7374,2544.42
59.7714,2635.27
59.8054,2657.7
59.8394,2642.89
59.8734,2581.45
59.9074,2552.36
59.9414,2575.72
59.9754,2570.34
60.0094,2554.19
60.0434,2581.08
60.0774,2615.76
60.1114,2682.19
60.1454,2569.81
60.1794,2613.11
60.2134,2583.78
60.2474,2596.25
60.2814,2502.62
60.3154,2635.27
60.3494,2550.01
60.3834,2564.34
60.4174,2574.07
60.4514,2652.14
60.4854,2679.38
60.5194,2620.86
60.5534,2598.56
60.5874,2606.23
60.6214,2590.4
60.6554,2606.38
60.6894,2573.34
60.7234,2640.79
60.7574,2636.99
60.7914,2625.66
60.8254,2538.26
60.8594,2641.51
60.8934,2601.87
60.9274,2540.48
60.9614,2638.41
60.9954,2621.92
61.0294,2607.27
61.0634,2588.43
61.0974,2627.24
61.1314,2570.74
61.1654,2614.54
61.1994,2626.86
61.2334,2567.56
61.2674,2603.84
61.3014,2518.32
61.3354,2575.21
61.3694,2607.78
61.4034,2633.44
61.4374,2695.94
61.4714,2568.19
61.5054,2615.96
61.5394,2621.62
61.5734,2584.26
61.6074,2625.43
61.6414,2655.06
61.6754,2598.34
61.7094,2608.03
61.7434,2677
61.7774,2630.99
61.8114,2567.92
61.8454,2651.08
61.8794,2684.71
61.9134,2603.7
61.9474,2661.61
61.9814,2672.42
62.0154,2603.47
62.0494,2663.06
62.0834,2693.34
62.1174,2702.19
62.1514,2756.49
62.1854,2736.11
62.2194,2625.27
62.2534,2792.3
62.2874,2735.52
62.3214,2645.06
62.3554,2724.76
62.3894,2614.75
62.4234,2642.55
62.4574,2687.94
62.4914,2649.04
62.5254,2707.88
62.5594,2697.2
62.5934,2698.02
62.6274,2718.22
62.6614,2683.46
62.6954,2783.42
62.7294,2756.63
62.7634,2725.85
62.7974,2767.61
62.8314,2718.74
62.8654,2744.81
62.8994,2795.63
62.9334,2737.02
62.9674,2757.31
63.0014,2739.69
63.0354,2754.38
63.0694,2740.72
63.1034,2797.96
63.1374,2801.17
63.1714,2799.99
63.2054,2681.1
63.2394,2648.69
63.2734,2779.38
63.3074,2729.04
63.3414,2775.62
63.3754,2603.96
63.4094,2702.77
63.4434,2663.16
63.4774,2600.77
63.5114,2691.49
63.5454,2678.24
63.5794,2681.78
63.6134,2679.05
63.6474,2630.34
63.6814,2670.99
63.7154,2695.73
63.7494,2643.78
63.7834,2610.85
63.8174,2595.68
63.8514,2597.19
63.8854,2678.63
63.9194,2619.07
63.9534,2609.17
63.9874,2659.98
64.0214,2587.61
64.0554,2624.98
64.0894,2620.25
64.1234,2626.06
64.1574,2625.96
64.1914,2567.93
64.2254,2636.45
64.2594,2584.92
64.2934,2566.39
64.3274,2594.92
64.3614,2613.6
64.3954,2543.37
64.4294,2551.26
64.4634,2582.36
64.4974,2601.52
64.5314,2549.5
64.5654,2518.67
64.5994,2542.87
64.6334,2553.49
64.6674,2604.47
64.7014,2575.34
64.7354,2554.29
64.7694,2465.66
64.8034,2528.06
64.8374,2582.7
64.8714,2523.49
64.9054,2538.61
64.9394,2527.1
64.9734,2396.93
65.0074,2526.98
65.0414,2529.51
65.0754,2478.29
65.1094,2570.01
65.1434,2575
65.1774,2537.17
65.2114,2494.35
65.2454,2533.1
65.2794,2537.22
65.3134,2568.05
65.3474,2465.61
65.3814,2551.81
65.4154,2479
65.4494,2514.82
65.4834,2534.66
65.5174,2485.87
65.5514,2489.71
65.5854,2432.21
65.6194,2465.69
65.6534,2464.04
65.6874,2474.25
65.7214,2508.46
65.7554,2510.6
65.7894,2427.29
65.8234,2469.03
65.8574,2526.88
65.8914,2480.96
65.9254,2435.68
65.9594,2503.15
65.9934,2481.47
66.0274,2524.51
66.0614,2449.95
66.0954,2496.63
66.1294,2508.14
66.1634,2519.18
66.1974,2385.06
66.2314,2444.91
66.2654,2490.5
66.2994,2507.71
66.3334,2433.63
66.3674,2437.99
66.4014,2456.41
66.4354,2470.67
66.4694,2384.62
66.5034,2506.19
66.5374,2444.98
66.5714,2433.62
66.6054,2449.56
66.6394,2519.16
66.6734,2508.28
66.7074,2428.69
66.7414,2403.53
66.7754,2451.9
66.8094,2476.6
66.8434,2422.4
66.8774,2437.65
66.9114,2439.45
66.9454,2476.19
66.9794,2442.33
67.0134,2474.45
67.0474,2435.15
67.0814,2476.19
67.1154,2434.68
67.1494,2442.4
67.1834,2465.03
67.2174,2530.76
67.2514,2507.93
67.2854,2486.1
67.3194,2474.74
67.3534,2464.29
67.3874,2433.47
67.4214,2410.17
67.4554,2442.43
67.4894,2469.13
67.5234,2522.2
67.5574,2446.91
67.5914,2452.96
67.6254,2487.79
67.6594,2499.57
67.6934,2476.48
67.7274,2464.7
67.7614,2474.9
67.7954,2432.71
67.8294,2463.08
67.8634,2436.26
67.8974,2422.12
67.9314,2432.22
67.9654,2462.62
67.9994,2443.37
68.0334,2492.39
68.0674,2508.12
68.1014,2475.69
68.1354,2439.75
68.1694,2470.69
68.2034,2503.95
68.2374,2396.03
68.2714,2531.82
68.3054,2396.83
68.3394,2478.29
68.3734,2490.03
68.4074,2524.33
68.4414,2503.54
68.4754,2486.18
68.5094,2443.14
68.5434,2506.57
68.5774,2456
68.6114,2514.66
68.6454,2495.12
68.6794,2461.91
68.7134,2460.46
68.7474,2420.93
68.7814,2414.92
68.8154,2438.43
68.8494,2507.19
68.8834,2530.01
68.9174,2481.82
68.9514,2488.44
68.9854,2480.43
69.0194,2450.46
69.0534,2390.25
69.0874,2431.16
69.1214,2342.26
69.1554,2523.14
69.1894,2476.76
69.2234,2432.42
69.2574,2491.42
69.2914,2390.66
69.3254,2505.29
69.3594,2549
69.3934,2534.57
69.4274,2488.11
69.4614,2381.19
69.4954,2545.31
69.5294,2481.04
69.5634,2527.53
69.5974,2359.94
69.6314,2445.53
69.6654,2417.55
69.6994,2481.92
69.7334,2452.91
69.7674,2434.55
69.8014,2513.37
69.8354,2492.04
69.8694,2456.05
69.9034,2423.53
69.9374,2373.52
69.9714,2391.76
69.9884,2485.14