File: herald_visualization/Delia_Scripts/MnF3/MnF3_1to1_KS6Lgraphite/20mins/Differences_240925-MnF3_1to1_KS6Lgraphite-20min_milled-20-70deg_40min.csv
2Theta,Intensity
20.0254,186.834
20.0594,133.03
20.0934,220.013
20.1274,330.861
20.1614,204.093
20.1954,130.383
20.2294,218.558
20.2634,243.233
20.2974,167.643
20.3314,159.753
20.3654,180.863
20.3994,90.1113
20.4334,-13.2434
20.4674,-11.1949
20.5014,96.3584
20.5354,124.28
20.5694,177.278
20.6034,1.13542
20.6374,44.5207
20.6714,73.8747
20.7054,124.463
20.7394,72.8661
20.7734,170.174
20.8074,-8.35942
20.8414,82.5177
20.8754,135.89
20.9094,65.7391
20.9434,78.6383
20.9774,94.1696
21.0114,-176.029
21.0454,-36.7669
21.0794,183.727
21.1134,-34.5155
21.1474,3.77279
21.1814,-121.924
21.2154,36.643
21.2494,5.12636
21.2834,9.29425
21.3174,-12.1697
21.3514,61.5128
21.3854,-35.6507
21.4194,160.748
21.4534,68.8788
21.4874,-11.525
21.5214,59.652
21.5554,7.40006
21.5894,-103.762
21.6234,-70.4002
21.6574,48.0978
21.6914,-25.8371
21.7254,-71.0468
21.7594,23.0569
21.7934,55.7455
21.8274,-32.7292
21.8614,-154.449
21.8954,-87.1421
21.9294,-30.9097
21.9634,5.76075
21.9974,-172.102
22.0314,-247.89
22.0654,-5.60686
22.0994,-103.41
22.1334,-112.18
22.1674,-89.9785
22.2014,-60.4987
22.2354,-56.3523
22.2694,-180.766
22.3034,-148.557
22.3374,-104.058
22.3714,-145.702
22.4054,-241.05
22.4394,-180.345
22.4734,-261.554
22.5074,-307.722
22.5414,-147.187
22.5754,-249.698
22.6094,-216.668
22.6434,-284.33
22.6774,-316.598
22.7114,-224.302
22.7454,-261.475
22.7794,-95.4731
22.8134,-245.165
22.8474,-248.273
22.8814,-194.295
22.9154,-201.844
22.9494,-275.388
22.9834,-84.8719
23.0174,-173.654
23.0514,125.893
23.0854,-105.525
23.1194,-54.8884
23.1534,-105.16
23.1874,-111.261
23.2214,-229.829
23.2554,-184.904
23.2894,-78.7763
23.3234,-113.144
23.3574,27.2835
23.3914,-155.434
23.4254,-113.996
23.4594,-79.6
23.4934,-32.6275
23.5274,-73.1339
23.5614,-123.666
23.5954,-17.4134
23.6294,-4.74365
23.6634,120.427
23.6974,57.002
23.7314,122.34
23.7654,85.0114
23.7994,208.468
23.8334,457.305
23.8674,176.039
23.9014,338.658
23.9354,289.356
23.9694,279.228
24.0034,73.8316
24.0374,-162.662
24.0714,-253.047
24.1054,-345.146
24.1394,-519.849
24.1734,-610.942
24.2074,-781.972
24.2414,-675.045
24.2754,-745.963
24.3094,-565.994
24.3434,-585.356
24.3774,-352.193
24.4114,-385.351
24.4454,-261.829
24.4794,-168.058
24.5134,-29.3515
24.5474,-87.8684
24.5814,-158.359
24.6154,-72.0615
24.6494,-98.5181
24.6834,7.09184
24.7174,-45.1537
24.7514,-74.3889
24.7854,-86.5792
24.8194,-114.794
24.8534,-213.993
24.8874,-237.775
24.9214,-115.618
24.9554,-181.929
24.9894,-190.478
25.0234,-190.859
25.0574,-222.49
25.0914,-105.765
25.1254,-201.24
25.1594,-151.17
25.1934,-154.571
25.2274,-251.419
25.2614,-224.829
25.2954,-195.059
25.3294,-94.4326
25.3634,-190.723
25.3974,-158.322
25.4314,-135.863
25.4654,-170.141
25.4994,-131.694
25.5334,-143.013
25.5674,-193.821
25.6014,-134.648
25.6354,-101.671
25.6694,-26.831
25.7034,-155.938
25.7374,-120.525
25.7714,-100.779
25.8054,-167.929
25.8394,-52.3076
25.8734,-75.9092
25.9074,-68.7565
25.9414,-177.375
25.9754,-263.529
26.0094,-160.904
26.0434,-107.553
26.0774,-174.571
26.1114,-82.7639
26.1454,-9.99398
26.1794,-80.0801
26.2134,-118.924
26.2474,-75.2368
26.2814,-16.3692
26.3154,8.31743
26.3494,-62.6436
26.3834,-155.01
26.4174,88.1089
26.4514,14.612
26.4854,41.1402
26.5194,-7.18397
26.5534,15.815
26.5874,-84.6412
26.6214,-35.1802
26.6554,-100.179
26.6894,-58.9908
26.7234,-83.4909
26.7574,-89.0343
26.7914,-210.654
26.8254,-123.121
26.8594,-70.607
26.8934,-85.4531
26.9274,-135.48
26.9614,-163.092
26.9954,18.1334
27.0294,-63.4999
27.0634,-40.9339
27.0974,-39.2733
27.1314,-80.4377
27.1654,-12.9694
27.1994,-82.1908
27.2334,7.33482
27.2674,7.34142
27.3014,-78.5179
27.3354,-62.89
27.3694,-49.1645
27.4034,34.1682
27.4374,-32.046
27.4714,-85.6492
27.5054,-85.1843
27.5394,1.28248
27.5734,-131.14
27.6074,-59.5095
27.6414,-61.8694
27.6754,54.2584
27.7094,-159.514
27.7434,-52.6952
27.7774,36.8981
27.8114,-157.721
27.8454,-65.4492
27.8794,-145.799
27.9134,10.9038
27.9474,-188.57
27.9814,-140.225
28.0154,-207.292
28.0494,-125.614
28.0834,-150.602
28.1174,18.3451
28.1514,-4.07569
28.1854,-36.5623
28.2194,-56.9547
28.2534,16.5351
28.2874,-69.0241
28.3214,28.7542
28.3554,-17.5357
28.3894,-14.9419
28.4234,-9.58622
28.4574,-108.717
28.4914,-89.5017
28.5254,-59.1867
28.5594,23.0533
28.5934,-31.5347
28.6274,-26.8757
28.6614,40.2351
28.6954,-67.6663
28.7294,-30.3284
28.7634,-29.4346
28.7974,-74.8386
28.8314,-107.343
28.8654,-15.6498
28.8994,80.0953
28.9334,-16.3858
28.9674,-26.5183
29.0014,-20.1467
29.0354,-73.1288
29.0694,-35.3777
29.1034,-16.6349
29.1374,45.33
29.1714,-96.6257
29.2054,-0.701698
29.2394,-65.8362
29.2734,20.5717
29.3074,-87.7901
29.3414,-91.0853
29.3754,-59.5316
29.4094,-27.4293
29.4434,-147.617
29.4774,-40.7684
29.5114,40.5443
29.5454,-19.4801
29.5794,24.5948
29.6134,-77.1038
29.6474,-18.2945
29.6814,-2.98596
29.7154,-48.0738
29.7494,17.0863
29.7834,48.0252
29.8174,33.3812
29.8514,23.8504
29.8854,-50.5149
29.9194,55.5682
29.9534,-96.739
29.9874,-35.2489
30.0214,-5.52102
30.0554,-54.4723
30.0894,-79.1476
30.1234,-6.56426
30.1574,55.4397
30.1914,38.8302
30.2254,8.42095
30.2594,-35.6479
30.2934,-22.4238
30.3274,-28.6674
30.3614,-80.3775
30.3954,26.6977
30.4294,55.5181
30.4634,-59.4447
30.4974,-53.0732
30.5314,19.8975
30.5654,34.8769
30.5994,89.5852
30.6334,37.0934
30.6674,79.536
30.7014,-11.3595
30.7354,18.1979
30.7694,-102.683
30.8034,-24.8654
30.8374,-26.6553
30.8714,-78.053
30.9054,4.50636
30.9394,-51.7652
30.9734,-2.54556
31.0074,8.35729
31.0414,-13.8873
31.0754,33.7505
31.1094,-55.5755
31.1434,-53.6032
31.1774,-61.2475
31.2114,-3.794
31.2454,-22.3074
31.2794,59.2497
31.3134,-25.3927
31.3474,46.0116
31.3814,-23.6642
31.4154,-66.5296
31.4494,4.8476
31.4834,74.4786
31.5174,-30.8504
31.5514,-13.4657
31.5854,18.2419
31.6194,-78.495
31.6534,15.6712
31.6874,11.2783
31.7214,-50.9951
31.7554,-93.9487
31.7894,-20.166
31.8234,-81.4133
31.8574,89.6353
31.8914,24.1672
31.9254,-6.5595
31.9594,-59.4802
31.9934,73.8105
32.0274,26.2035
32.0614,-1.0664
32.0954,16.13
32.1294,-2.06318
32.1634,136.285
32.1974,39.8008
32.2314,-2.74841
32.2654,-9.28493
32.2994,-35.4623
32.3334,-26.1048
32.3674,48.1924
32.4014,-23.0583
32.4354,50.2437
32.4694,-31.6094
32.5034,-11.9943
32.5374,7.68335
32.5714,44.0463
32.6054,28.8632
32.6394,11.9525
32.6734,-18.0624
32.7074,-62.0512
32.7414,-193.233
32.7754,-64.9736
32.8094,-63.6755
32.8434,-180.843
32.8774,-250.865
32.9114,-119.814
32.9454,-102.205
32.9794,-155.348
33.0134,-146.288
33.0474,-77.9752
33.0814,38.1924
33.1154,-53.2291
33.1494,-36.2321
33.1834,-56.5984
33.2174,-48.6375
33.2514,87.9092
33.2854,-9.11092
33.3194,47.9291
33.3534,135.6
33.3874,101.792
33.4214,33.9541
33.4554,36.8065
33.4894,58.0447
33.5234,23.385
33.5574,-25.9346
33.5914,-123.287
33.6254,-23.39
33.6594,-78.3324
33.6934,32.1741
33.7274,-159.12
33.7614,-207.403
33.7954,-229.692
33.8294,-111.835
33.8634,-147.235
33.8974,-127.215
33.9314,20.6497
33.9654,-77.9929
33.9994,38.1489
34.0334,-46.3933
34.0674,-33.2338
34.1014,-55.2523
34.1354,-50.3579
34.1694,7.04347
34.2034,70.6793
34.2374,5.34713
34.2714,0.589991
34.3054,13.7204
34.3394,19.1605
34.3734,42.2938
34.4074,55.3142
34.4414,62.9687
34.4754,40.534
34.5094,43.3386
34.5434,15.3068
34.5774,-166.217
34.6114,-22.6243
34.6454,-24.7046
34.6794,-79.8169
34.7134,-74.0046
34.7474,-83.8944
34.7814,-177.058
34.8154,-104.007
34.8494,-161.772
34.8834,-105.861
34.9174,-67.6296
34.9514,-148.653
34.9854,-182.754
35.0194,-62.9705
35.0534,-171.218
35.0874,-143.123
35.1214,-101.472
35.1554,-81.1056
35.1894,-64.4387
35.2234,-83.0768
35.2574,-46.2083
35.2914,9.80475
35.3254,-117.101
35.3594,3.69025
35.3934,85.2157
35.4274,-52.465
35.4614,-23.4691
35.4954,-14.9076
35.5294,-39.0921
35.5634,2.85203
35.5974,-4.54856
35.6314,-17.9134
35.6654,-36.4053
35.6994,40.4147
35.7334,87.8118
35.7674,44.6367
35.8014,8.60655
35.8354,-5.4268
35.8694,59.9323
35.9034,-23.0474
35.9374,-9.15711
35.9714,10.6872
36.0054,-69.0926
36.0394,-28.4343
36.0734,-44.958
36.1074,7.83685
36.1414,90.3314
36.1754,-79.0078
36.2094,15.5656
36.2434,-19.1806
36.2774,-51.1595
36.3114,-34.18
36.3454,-28.6724
36.3794,-24.0881
36.4134,-30.8445
36.4474,16.774
36.4814,-2.55466
36.5154,11.4522
36.5494,-31.6578
36.5834,34.9072
36.6174,5.72178
36.6514,-22.9633
36.6854,-126.319
36.7194,-109.824
36.7534,-31.8086
36.7874,-85.4275
36.8214,17.5868
36.8554,-50.7425
36.8894,-64.2091
36.9234,-9.55913
36.9574,-64.6767
36.9914,-7.6546
37.0254,36.1977
37.0594,-38.5858
37.0934,8.22922
37.1274,6.42211
37.1614,9.18523
37.1954,-4.3205
37.2294,-65.4186
37.2634,-112.037
37.2974,67.0947
37.3314,4.45183
37.3654,20.5107
37.3994,-44.2167
37.4334,-60.9477
37.4674,-4.97808
37.5014,7.13953
37.5354,-63.9016
37.5694,-23.8383
37.6034,-49.6516
37.6374,15.9163
37.6714,121.58
37.7054,1.7232
37.7394,16.2233
37.7734,75.3871
37.8074,-26.4998
37.8414,-18.1034
37.8754,55.4785
37.9094,-32.8106
37.9434,-63.5772
37.9774,-52.6031
38.0114,25.6108
38.0454,23.6248
38.0794,56.668
38.1134,6.59377
38.1474,66.3151
38.1814,23.1929
38.2154,-7.23091
38.2494,8.96287
38.2834,75.3229
38.3174,84.7767
38.3514,17.3941
38.3854,12.4319
38.4194,-38.4796
38.4534,-20.7707
38.4874,51.1293
38.5214,68.4246
38.5554,14.1277
38.5894,16.7552
38.6234,47.3567
38.6574,-52.5826
38.6914,-51.8902
38.7254,68.4229
38.7594,87.947
38.7934,60.1798
38.8274,-15.7006
38.8614,-17.5548
38.8954,73.6679
38.9294,-87.9938
38.9634,-24.7008
38.9974,31.6273
39.0314,117.504
39.0654,-10.353
39.0994,-12.7622
39.1334,39.4523
39.1674,140.324
39.2014,34.1808
39.2354,93.7061
39.2694,72.2152
39.3034,86.2558
39.3374,19.7618
39.3714,169.362
39.4054,45.4172
39.4394,10.178
39.4734,130.756
39.5074,-16.6145
39.5414,168.529
39.5754,65.7409
39.6094,188.513
39.6434,34.4237
39.6774,104.614
39.7114,25.1511
39.7454,44.4392
39.7794,-4.00218
39.8134,-57.6542
39.8474,7.27926
39.8814,-76.4411
39.9154,-55.0637
39.9494,-84.9124
39.9834,-50.9899
40.0174,-54.558
40.0514,-67.4701
40.0854,-63.4359
40.1194,-120.811
40.1534,-47.9323
40.1874,-52.1353
40.2214,65.63
40.2554,1.67364
40.2894,66.9002
40.3234,71.9795
40.3574,35.6212
40.3914,-5.10045
40.4254,113.369
40.4594,232.279
40.4934,75.4307
40.5274,70.3057
40.5614,115.097
40.5954,105.945
40.6294,150.886
40.6634,2.41798
40.6974,48.7376
40.7314,-44.2379
40.7654,-39.3836
40.7994,-52.583
40.8334,14.0162
40.8674,-88.7781
40.9014,-73.8214
40.9354,-162.302
40.9694,-66.8798
41.0034,-45.9765
41.0374,-197.302
41.0714,-106.576
41.1054,-116.951
41.1394,14.0441
41.1734,-9.61079
41.2074,-39.1134
41.2414,-8.25085
41.2754,119.102
41.3094,83.7253
41.3434,17.1595
41.3774,135.53
41.4114,161.717
41.4454,237.816
41.4794,222.539
41.5134,110.989
41.5474,262.795
41.5814,141.49
41.6154,154.643
41.6494,37.6429
41.6834,248.613
41.7174,74.6032
41.7514,-16.2812
41.7854,86.1049
41.8194,159.43
41.8534,113.085
41.8874,87.0458
41.9214,145.714
41.9554,73.745
41.9894,86.9415
42.0234,-27.077
42.0574,-45.1342
42.0914,14.5093
42.1254,29.2021
42.1594,-25.0076
42.1934,10.9699
42.2274,-27.0312
42.2614,-38.562
42.2954,38.6539
42.3294,79.4043
42.3634,47.7075
42.3974,38.8995
42.4314,13.4957
42.4654,36.0595
42.4994,123.829
42.5334,122.724
42.5674,128.547
42.6014,95.4684
42.6354,86.6159
42.6694,127.02
42.7034,-6.07618
42.7374,62.017
42.7714,63.6008
42.8054,81.75
42.8394,128.084
42.8734,76.8075
42.9074,98.7577
42.9414,90.9093
42.9754,89.3333
43.0094,137.862
43.0434,24.0116
43.0774,96.4147
43.1114,138.863
43.1454,2.75783
43.1794,75.7731
43.2134,82.9392
43.2474,76.828
43.2814,157.011
43.3154,208.527
43.3494,186.98
43.3834,275.624
43.4174,300.097
43.4514,551.543
43.4854,498.751
43.5194,641.819
43.5534,685.79
43.5874,699.582
43.6214,575.427
43.6554,708.714
43.6894,547.291
43.7234,512.038
43.7574,502.638
43.7914,344.157
43.8254,277.913
43.8594,195.577
43.8934,207.846
43.9274,186.741
43.9614,189.911
43.9954,163.915
44.0294,114.248
44.0634,191.682
44.0974,89.3705
44.1314,144.889
44.1654,54.3077
44.1994,167.842
44.2334,169.269
44.2674,177.51
44.3014,194.457
44.3354,198.597
44.3694,136.691
44.4034,213.008
44.4374,203.068
44.4714,112.425
44.5054,155.073
44.5394,182.413
44.5734,109.946
44.6074,89.3398
44.6414,231.069
44.6754,178.138
44.7094,27.0456
44.7434,126.277
44.7774,-9.67609
44.8114,9.17622
44.8454,116.563
44.8794,56.2283
44.9134,-22.9558
44.9474,0.734554
44.9814,-34.972
45.0154,64.3429
45.0494,-54.5855
45.0834,80.4703
45.1174,-15.8328
45.1514,37.2631
45.1854,29.7077
45.2194,-30.3622
45.2534,-9.91232
45.2874,-43.7587
45.3214,35.167
45.3554,-37.5604
45.3894,-73.1983
45.4234,-2.93649
45.4574,37.1086
45.4914,-50.7581
45.5254,-105.123
45.5594,-57.3116
45.5934,-71.4277
45.6274,-61.0174
45.6614,-115.598
45.6954,-77.9094
45.7294,-21.5648
45.7634,-41.6197
45.7974,-123.172
45.8314,-66.1307
45.8654,-4.58794
45.8994,-91.5481
45.9334,-37.8836
45.9674,-35.3624
46.0014,-85.3092
46.0354,-85.1213
46.0694,-35.1344
46.1034,-141.331
46.1374,-107.083
46.1714,-112.715
46.2054,-35.291
46.2394,-53.6134
46.2734,-35.3882
46.3074,-93.974
46.3414,-91.5512
46.3754,-61.7461
46.4094,-4.75856
46.4434,-55.6567
46.4774,-20.4725
46.5114,-17.356
46.5454,-125.28
46.5794,-52.8183
46.6134,-93.8174
46.6474,-79.719
46.6814,-38.1188
46.7154,-61.2875
46.7494,-77.387
46.7834,-46.8718
46.8174,7.13303
46.8514,-13.5194
46.8854,-52.2584
46.9194,-14.2725
46.9534,-45.2678
46.9874,-50.3666
47.0214,75.0895
47.0554,27.9462
47.0894,-39.2899
47.1234,-54.142
47.1574,-30.3321
47.1914,-21.3167
47.2254,-32.2166
47.2594,-17.0775
47.2934,-30.9386
47.3274,-44.7879
47.3614,-90.9624
47.3954,-7.24122
47.4294,38.86
47.4634,-29.888
47.4974,-4.12168
47.5314,23.2775
47.5654,3.54637
47.5994,-32.1376
47.6334,-58.8048
47.6674,12.3309
47.7014,-10.2316
47.7354,-12.54
47.7694,-23.6929
47.8034,56.9163
47.8374,28.2915
47.8714,32.7471
47.9054,40.3749
47.9394,-55.6448
47.9734,44.448
48.0074,85.2159
48.0414,17.7675
48.0754,63.9428
48.1094,37.3821
48.1434,24.3515
48.1774,62.0624
48.2114,76.57
48.2454,87.4405
48.2794,41.3521
48.3134,120.787
48.3474,113.912
48.3814,3.7487
48.4154,54.6281
48.4494,122.301
48.4834,100.934
48.5174,79.6025
48.5514,157.585
48.5854,187.922
48.6194,47.2041
48.6534,123.325
48.6874,201.56
48.7214,138.185
48.7554,103.369
48.7894,107.654
48.8234,92.9642
48.8574,150.233
48.8914,148.027
48.9254,107.943
48.9594,-34.2777
48.9934,54.7615
49.0274,79.4153
49.0614,61.7504
49.0954,4.67274
49.1294,-51.7554
49.1634,-15.961
49.1974,-41.2943
49.2314,-67.5621
49.2654,-19.8189
49.2994,-109.691
49.3334,-84.7085
49.3674,-55.8872
49.4014,-103.256
49.4354,-91.6195
49.4694,-30.9921
49.5034,-34.0816
49.5374,-30.8891
49.5714,-122.48
49.6054,20.4368
49.6394,-46.7689
49.6734,-44.7994
49.7074,39.2756
49.7414,-52.5129
49.7754,20.4113
49.8094,3.7867
49.8434,60.8683
49.8774,134.506
49.9114,33.3848
49.9454,100.865
49.9794,66.714
50.0134,117.296
50.0474,163.685
50.0814,138.549
50.1154,139.555
50.1494,167.561
50.1834,92.658
50.2174,204.04
50.2514,169.735
50.2854,227.381
50.3194,246.322
50.3534,207.733
50.3874,173.609
50.4214,184.038
50.4554,208.284
50.4894,143.075
50.5234,167.757
50.5574,223.605
50.5914,96.6593
50.6254,109.913
50.6594,109.14
50.6934,197.29
50.7274,155.739
50.7614,200.787
50.7954,113.495
50.8294,111.109
50.8634,105.06
50.8974,96.4079
50.9314,31.4843
50.9654,65.6891
50.9994,63.0867
51.0334,39.2508
51.0674,70.5065
51.1014,76.1202
51.1354,12.7212
51.1694,56.1855
51.2034,12.8827
51.2374,38.7837
51.2714,33.8363
51.3054,-41.0664
51.3394,12.567
51.3734,4.02087
51.4074,-33.897
51.4414,30.8829
51.4754,-82.0215
51.5094,-67.7758
51.5434,3.37681
51.5774,63.425
51.6114,10.673
51.6454,26.3783
51.6794,7.04441
51.7134,-29.718
51.7474,-36.149
51.7814,3.18123
51.8154,-61.7199
51.8494,-38.0967
51.8834,-69.8668
51.9174,-7.78169
51.9514,-11.5524
51.9854,-17.5292
52.0194,-48.7209
52.0534,-47.0026
52.0874,-169.644
52.1214,26.0299
52.1554,-89.5801
52.1894,-17.3318
52.2234,-74.3365
52.2574,50.8139
52.2914,-20.7738
52.3254,105.429
52.3594,-7.95489
52.3934,-25.9339
52.4274,20.8822
52.4614,42.9294
52.4954,-22.7936
52.5294,64.1133
52.5634,74.74
52.5974,114.477
52.6314,87.899
52.6654,-12.2078
52.6994,36.7434
52.7334,52.936
52.7674,23.2042
52.8014,78.7949
52.8354,63.6395
52.8694,62.0846
52.9034,93.6434
52.9374,88.5787
52.9714,128.441
53.0054,64.8346
53.0394,27.0563
53.0734,90.6785
53.1074,47.9585
53.1414,115.382
53.1754,37.4865
53.2094,114.985
53.2434,58.272
53.2774,44.1188
53.3114,-25.377
53.3454,88.1095
53.3794,24.8925
53.4134,35.3517
53.4474,-70.6499
53.4814,-88.885
53.5154,-167.86
53.5494,2.70733
53.5834,-46.3955
53.6174,-120.969
53.6514,-111.484
53.6854,-106.371
53.7194,-95.8644
53.7534,-57.3323
53.7874,13.4317
53.8214,72.7305
53.8554,27.9197
53.8894,-14.085
53.9234,81.3115
53.9574,15.1542
53.9914,34.9677
54.0254,173.477
54.0594,173.465
54.0934,160.622
54.1274,100.838
54.1614,91.8913
54.1954,129.588
54.2294,87.3208
54.2634,213.242
54.2974,164.972
54.3314,211.237
54.3654,129.531
54.3994,77.2519
54.4334,194.835
54.4674,97.4496
54.5014,181.589
54.5354,49.0182
54.5694,61.597
54.6034,40.1343
54.6374,92.6504
54.6714,-17.9148
54.7054,14.5276
54.7394,-20.2179
54.7734,-29.3505
54.8074,-86.799
54.8414,-60.0226
54.8754,-131.748
54.9094,-25.3608
54.9434,-71.58
54.9774,10.7662
55.0114,-116.096
55.0454,-38.0484
55.0794,-110.017
55.1134,35.228
55.1474,-84.41
55.1814,-149.297
55.2154,-109.15
55.2494,-61.0973
55.2834,3.37612
55.3174,-16.6173
55.3514,66.6874
55.3854,127.545
55.4194,84.4863
55.4534,116.11
55.4874,65.3088
55.5214,79.8335
55.5554,179.121
55.5894,80.0242
55.6234,240.042
55.6574,231.6
55.6914,216.449
55.7254,167.316
55.7594,158.976
55.7934,205.333
55.8274,178.786
55.8614,105.566
55.8954,182.032
55.9294,106.309
55.9634,83.1096
55.9974,139.397
56.0314,51.0575
56.0654,94.516
56.0994,61.3779
56.1334,-24.0314
56.1674,-18.4352
56.2014,2.63863
56.2354,-68.9407
56.2694,-59.0712
56.3034,-34.8502
56.3374,-109.535
56.3714,-53.2963
56.4054,-60.6726
56.4394,-135.321
56.4734,-47.3091
56.5074,-65.2736
56.5414,-109.734
56.5754,-56.6082
56.6094,-14.3396
56.6434,-29.4163
56.6774,-37.214
56.7114,-55.4054
56.7454,-20.3708
56.7794,-9.03437
56.8134,-18.4381
56.8474,-38.9477
56.8814,62.1475
56.9154,31.1428
56.9494,9.25827
56.9834,15.4465
57.0174,76.9285
57.0514,89.3372
57.0854,56.8127
57.1194,27.9076
57.1534,95.0246
57.1874,29.0541
57.2214,-8.67992
57.2554,59.9706
57.2894,92.9196
57.3234,82.1556
57.3574,195.47
57.3914,-17.927
57.4254,39.1482
57.4594,74.2929
57.4934,3.36215
57.5274,63.8977
57.5614,135.075
57.5954,72.4042
57.6294,27.8154
57.6634,24.1689
57.6974,38.5742
57.7314,108.515
57.7654,97.7339
57.7994,22.9311
57.8334,32.5476
57.8674,67.7712
57.9014,96.8501
57.9354,38.9976
57.9694,106.28
58.0034,63.4101
58.0374,10.4425
58.0714,56.8881
58.1054,77.0483
58.1394,14.1173
58.1734,79.1196
58.2074,4.70757
58.2414,9.47166
58.2754,-15.9437
58.3094,19.6051
58.3434,36.3863
58.3774,6.88432
58.4114,-46.8254
58.4454,-3.74068
58.4794,30.4025
58.5134,25.5307
58.5474,13.8953
58.5814,-51.3405
58.6154,2.50081
58.6494,-121.891
58.6834,-128.053
58.7174,-68.1642
58.7514,-59.8865
58.7854,-10.6753
58.8194,-14.5493
58.8534,-37.1066
58.8874,-81.647
58.9214,32.9725
58.9554,-33.6618
58.9894,-0.316301
59.0234,-53.1819
59.0574,-56.1638
59.0914,-3.67939
59.1254,-31.8901
59.1594,-40.8865
59.1934,-60.6263
59.2274,-18.7397
59.2614,-4.17987
59.2954,-42.6702
59.3294,-162.444
59.3634,19.1302
59.3974,-41.4957
59.4314,38.9381
59.4654,-91.6412
59.4994,-27.1296
59.5334,-44.501
59.5674,19.3359
59.6014,18.4556
59.6354,-100.529
59.6694,-48.1734
59.7034,-21.3337
59.7374,-62.1581
59.7714,30.4054
59.8054,54.3024
59.8394,40.9947
59.8734,-19.5368
59.9074,-48.0296
59.9414,-24.4331
59.9754,-29.7673
60.0094,-46.3981
60.0434,-20.3577
60.0774,13.0782
60.1114,77.8536
60.1454,-36.5964
60.1794,4.20747
60.2134,-28.0546
60.2474,-18.9449
60.2814,-116.332
60.3154,12.1812
60.3494,-77.5196
60.3834,-67.8505
60.4174,-62.8747
60.4514,10.5293
60.4854,33.3944
60.5194,-28.9608
60.5534,-54.301
60.5874,-48.6461
60.6214,-65.305
60.6554,-48.9152
60.6894,-80.3157
60.7234,-10.0989
60.7574,-10.1334
60.7914,-16.8904
60.8254,-99.1123
60.8594,9.70512
60.8934,-24.1625
60.9274,-79.7909
60.9614,23.7239
60.9954,12.5424
61.0294,2.84923
61.0634,-11.467
61.0974,31.4155
61.1314,-21.1453
61.1654,25.8225
61.1994,40.8665
61.2334,-16.1509
61.2674,22.1665
61.3014,-61.879
61.3354,-3.89564
61.3694,29.3781
61.4034,55.3613
61.4374,117.785
61.4714,-10.2223
61.5054,36.5933
61.5394,40.8016
61.5734,1.43904
61.6074,40.13
61.6414,66.4831
61.6754,5.76925
61.7094,10.6833
61.7434,74.0503
61.7774,21.5369
61.8114,-48.9251
61.8454,25.9573
61.8794,50.4689
61.9134,-40.4502
61.9474,6.92722
61.9814,6.77748
62.0154,-73.2956
62.0494,-24.6529
62.0834,-4.79845
62.1174,-5.50699
62.1514,40.37
62.1854,12.8229
62.2194,-103.926
62.2534,58.3364
62.2874,-2.24162
62.3214,-95.726
62.3554,-18.4437
62.3894,-130.465
62.4234,-104.382
62.4574,-60.4742
62.4914,-100.531
62.5254,-42.4846
62.5594,-53.3709
62.5934,-52.2391
62.6274,-30.9708
62.6614,-63.6956
62.6954,39.3668
62.7294,16.8696
62.7634,-8.61465
62.7974,39.2999
62.8314,-2.84407
62.8654,30.1777
62.8994,87.7996
62.9334,35.6067
62.9674,61.3057
63.0014,47.8877
63.0354,65.2973
63.0694,52.7699
63.1034,109.324
63.1374,110.123
63.1714,104.968
63.2054,-19.1973
63.2394,-57.7308
63.2734,66.5137
63.3074,10.0765
63.3414,51.6118
63.3754,-123.372
63.4094,-25.6602
63.4434,-63.7979
63.4774,-122.089
63.5114,-24.7112
63.5454,-29.013
63.5794,-14.4361
63.6134,-4.68272
63.6474,-39.7835
63.6814,15.1268
63.7154,54.2964
63.7494,16.6187
63.7834,-2.61599
63.8174,-4.87001
63.8514,8.64619
63.8854,101.059
63.9194,51.4128
63.9534,50.3881
63.9874,109.061
64.0214,43.6013
64.0554,87.0191
64.0894,87.5386
64.1234,97.9095
64.1574,101.748
64.1914,47.1309
64.2254,118.605
64.2594,69.639
64.2934,53.3446
64.3274,83.8407
64.3614,104.249
64.3954,35.5483
64.4294,44.7947
64.4634,77.1014
64.4974,97.3394
64.5314,46.2969
64.5654,16.3366
64.5994,41.3319
64.6334,52.6688
64.6674,104.344
64.7014,75.871
64.7354,55.4413
64.7694,-32.5558
64.8034,30.4942
64.8374,85.9278
64.8714,27.4622
64.9054,43.387
64.9394,32.7355
64.9734,-96.536
65.0074,34.5116
65.0414,38.0011
65.0754,-12.2253
65.1094,80.4868
65.1434,86.4653
65.1774,49.6062
65.2114,7.72918
65.2454,47.3863
65.2794,52.3811
65.3134,84.0512
65.3474,-17.6028
65.3814,69.342
65.4154,-2.77958
65.4494,33.6619
65.4834,54.0848
65.5174,5.76824
65.5514,9.97454
65.5854,-47.2555
65.6194,-13.6268
65.6534,-15.2562
65.6874,-5.18885
65.7214,28.7416
65.7554,30.4061
65.7894,-53.5443
65.8234,-12.6319
65.8574,44.2142
65.8914,-2.84378
65.9254,-49.398
65.9594,16.7004
65.9934,-6.39068
66.0274,35.2616
66.0614,-40.5834
66.0954,4.99158
66.1294,15.6422
66.1634,26.1343
66.1974,-108.196
66.2314,-48.1964
66.2654,-2.10045
66.2994,15.949
66.3334,-57.0016
66.3674,-51.2638
66.4014,-31.2775
66.4354,-15.3199
66.4694,-99.5772
66.5034,23.7992
66.5374,-35.5972
66.5714,-45.1827
66.6054,-27.5124
66.6394,43.7668
66.6734,34.5195
66.7074,-43.4781
66.7414,-67.0584
66.7754,-17.1084
66.8094,9.18488
66.8434,-43.4139
66.8774,-26.5356
66.9114,-23.0784
66.9454,15.0152
66.9794,-17.5519
67.0134,15.8637
67.0474,-22.154
67.0814,20.1616
67.1154,-20.0805
67.1494,-11.1711
67.1834,12.6125
67.2174,79.4245
67.2514,57.6163
67.2854,36.7507
67.3194,26.2862
67.3534,16.6795
67.3874,-13.3615
67.4214,-35.9355
67.4554,-2.98706
67.4894,24.3492
67.5234,78.0208
67.5574,3.30526
67.5914,9.89388
67.6254,45.2253
67.6594,57.4703
67.6934,34.8133
67.7274,23.4279
67.7614,33.9688
67.7954,-7.92184
67.8294,22.6925
67.8634,-3.93955
67.8974,-17.9541
67.9314,-7.79188
67.9654,22.5869
67.9994,1.22501
68.0334,48.045
68.0674,61.4807
68.1014,26.6317
68.1354,-11.8512
68.1694,16.4066
68.2034,46.8243
68.2374,-64.0952
68.2714,68.5035
68.3054,-69.863
68.3394,8.03041
68.3734,15.9938
68.4074,46.337
68.4414,21.4221
68.4754,-0.0965291
68.5094,-46.9632
68.5434,13.1536
68.5774,-40.7097
68.6114,14.7585
68.6454,-7.71065
68.6794,-43.5776
68.7134,-47.2304
68.7474,-88.432
68.7814,-95.5177
68.8154,-72.4701
68.8494,-3.51022
68.8834,19.9707
68.9174,-27.087
68.9514,-18.9284
68.9854,-25.097
69.0194,-52.9674
69.0534,-110.888
69.0874,-67.7496
69.1214,-154.458
69.1554,28.5017
69.1894,-15.9403
69.2234,-58.4974
69.2574,2.0376
69.2914,-97.3952
69.3254,18.3427
69.3594,62.9616
69.3934,49.2584
69.4274,3.33503
69.4614,-103.193
69.4954,61.1666
69.5294,-2.9703
69.5634,43.5338
69.5974,-124.13
69.6314,-38.6804
69.6654,-66.8629
69.6994,-2.75765
69.7334,-31.8962
69.7674,-50.5922
69.8014,27.8564
69.8354,6.13285
69.8694,-30.2744
69.9034,-63.1468
69.9374,-113.608
69.9714,-95.8306
69.9884,-2.3778