File: herald_visualization/XRD Plotting Scripts (Riley)/Fe0p56Mn0p44F3_60to25wt_SuperP_100min_20-70deg.csv
2Theta,Intensity
20.0084,7095.0
20.0418,7073.0
20.0752,6988.0
20.1086,6980.0
20.142,6807.0
20.1755,6977.0
20.2089,7137.0
20.2423,7107.0
20.2757,6997.0
20.3092,6895.0
20.3426,7004.0
20.376,6920.0
20.4094,6919.0
20.4428,6905.0
20.4763,7002.0
20.5097,7031.0
20.5431,6749.0
20.5765,7072.0
20.61,6745.0
20.6434,6818.0
20.6768,6877.0
20.7102,6940.0
20.7437,6855.0
20.7771,6806.0
20.8105,6860.0
20.8439,6769.0
20.8773,6694.0
20.9108,6858.0
20.9442,6640.0
20.9776,6703.0
21.011,6743.0
21.0445,6692.0
21.0779,6715.0
21.1113,6670.0
21.1447,6670.0
21.1781,6736.0
21.2116,6670.0
21.245,6571.0
21.2784,6631.0
21.3118,6577.0
21.3453,6669.0
21.3787,6721.0
21.4121,6585.0
21.4455,6539.0
21.4789,6675.0
21.5124,6637.0
21.5458,6395.0
21.5792,6624.0
21.6126,6567.0
21.6461,6410.0
21.6795,6549.0
21.7129,6529.0
21.7463,6518.0
21.7798,6511.0
21.8132,6509.0
21.8466,6403.0
21.88,6340.0
21.9134,6453.0
21.9469,6244.0
21.9803,6451.0
22.0137,6484.0
22.0471,6434.0
22.0806,6370.0
22.114,6327.0
22.1474,6414.0
22.1808,6251.0
22.2142,6254.0
22.2477,6176.0
22.2811,6388.0
22.3145,6277.0
22.3479,6370.0
22.3814,6423.0
22.4148,6233.0
22.4482,6290.0
22.4816,6209.0
22.515,6378.0
22.5485,6513.0
22.5819,6425.0
22.6153,6315.0
22.6487,6471.0
22.6822,6406.0
22.7156,6494.0
22.749,6518.0
22.7824,6412.0
22.8158,6406.0
22.8493,6418.0
22.8827,6329.0
22.9161,6579.0
22.9495,6574.0
22.983,6584.0
23.0164,6695.0
23.0498,6641.0
23.0832,6737.0
23.1167,6744.0
23.1501,6892.0
23.1835,7156.0
23.2169,7239.0
23.2503,7428.0
23.2838,7733.0
23.3172,7968.0
23.3506,8253.0
23.384,8356.0
23.4175,8923.0
23.4509,9479.0
23.4843,9787.0
23.5177,10103.0
23.5511,10502.0
23.5846,10511.0
23.618,10395.0
23.6514,10110.0
23.6848,9872.0
23.7183,9553.0
23.7517,9211.0
23.7851,8764.0
23.8185,8537.0
23.8519,8306.0
23.8854,8013.0
23.9188,7860.0
23.9522,7519.0
23.9856,7387.0
24.0191,7183.0
24.0525,7042.0
24.0859,7129.0
24.1193,6844.0
24.1528,6792.0
24.1862,6857.0
24.2196,6502.0
24.253,6451.0
24.2864,6523.0
24.3199,6412.0
24.3533,6418.0
24.3867,6327.0
24.4201,6185.0
24.4536,6178.0
24.487,6201.0
24.5204,6151.0
24.5538,6066.0
24.5872,6050.0
24.6207,6213.0
24.6541,6004.0
24.6875,6139.0
24.7209,6046.0
24.7544,6174.0
24.7878,6091.0
24.8212,6030.0
24.8546,6041.0
24.888,5972.0
24.9215,5939.0
24.9549,5954.0
24.9883,6113.0
25.0217,5849.0
25.0552,6010.0
25.0886,5900.0
25.122,5938.0
25.1554,5979.0
25.1888,5833.0
25.2223,5958.0
25.2557,5904.0
25.2891,5925.0
25.3225,5730.0
25.356,5838.0
25.3894,5720.0
25.4228,5940.0
25.4562,5788.0
25.4897,6021.0
25.5231,5905.0
25.5565,5742.0
25.5899,5930.0
25.6233,5972.0
25.6568,5784.0
25.6902,5847.0
25.7236,5925.0
25.757,5725.0
25.7905,5799.0
25.8239,5954.0
25.8573,5992.0
25.8907,5735.0
25.9241,5853.0
25.9576,5924.0
25.991,5740.0
26.0244,6052.0
26.0578,6023.0
26.0913,5823.0
26.1247,5868.0
26.1581,5659.0
26.1915,5826.0
26.2249,5778.0
26.2584,5809.0
26.2918,5799.0
26.3252,5750.0
26.3586,5787.0
26.3921,5708.0
26.4255,5811.0
26.4589,5762.0
26.4923,5814.0
26.5258,5651.0
26.5592,5600.0
26.5926,5707.0
26.626,5604.0
26.6594,5705.0
26.6929,5588.0
26.7263,5716.0
26.7597,5867.0
26.7931,5752.0
26.8266,5720.0
26.86,5681.0
26.8934,5626.0
26.9268,5714.0
26.9602,5746.0
26.9937,5784.0
27.0271,5750.0
27.0605,5654.0
27.0939,5613.0
27.1274,5818.0
27.1608,5600.0
27.1942,5625.0
27.2276,5717.0
27.261,5790.0
27.2945,5618.0
27.3279,5574.0
27.3613,5794.0
27.3947,5657.0
27.4282,5723.0
27.4616,5673.0
27.495,5548.0
27.5284,5629.0
27.5618,5699.0
27.5953,5666.0
27.6287,5542.0
27.6621,5479.0
27.6955,5591.0
27.729,5611.0
27.7624,5532.0
27.7958,5617.0
27.8292,5725.0
27.8627,5572.0
27.8961,5484.0
27.9295,5654.0
27.9629,5616.0
27.9963,5421.0
28.0298,5542.0
28.0632,5638.0
28.0966,5430.0
28.13,5594.0
28.1635,5569.0
28.1969,5629.0
28.2303,5525.0
28.2637,5527.0
28.2971,5585.0
28.3306,5716.0
28.364,5555.0
28.3974,5645.0
28.4308,5433.0
28.4643,5454.0
28.4977,5526.0
28.5311,5538.0
28.5645,5504.0
28.5979,5621.0
28.6314,5603.0
28.6648,5567.0
28.6982,5520.0
28.7316,5698.0
28.7651,5618.0
28.7985,5585.0
28.8319,5483.0
28.8653,5583.0
28.8988,5741.0
28.9322,5631.0
28.9656,5535.0
28.999,5526.0
29.0324,5391.0
29.0659,5343.0
29.0993,5500.0
29.1327,5483.0
29.1661,5358.0
29.1996,5333.0
29.233,5399.0
29.2664,5492.0
29.2998,5475.0
29.3332,5354.0
29.3667,5422.0
29.4001,5413.0
29.4335,5422.0
29.4669,5461.0
29.5004,5392.0
29.5338,5242.0
29.5672,5483.0
29.6006,5414.0
29.634,5365.0
29.6675,5476.0
29.7009,5363.0
29.7343,5458.0
29.7677,5289.0
29.8012,5313.0
29.8346,5531.0
29.868,5288.0
29.9014,5399.0
29.9348,5311.0
29.9683,5291.0
30.0017,5357.0
30.0351,5329.0
30.0685,5295.0
30.102,5402.0
30.1354,5169.0
30.1688,5166.0
30.2022,5387.0
30.2357,5322.0
30.2691,5386.0
30.3025,5352.0
30.3359,5138.0
30.3693,5359.0
30.4028,5206.0
30.4362,5223.0
30.4696,5213.0
30.503,5275.0
30.5365,5347.0
30.5699,5248.0
30.6033,5181.0
30.6367,5393.0
30.6701,5141.0
30.7036,5165.0
30.737,5119.0
30.7704,5212.0
30.8038,5111.0
30.8373,5064.0
30.8707,5335.0
30.9041,5216.0
30.9375,5167.0
30.9709,5208.0
31.0044,5178.0
31.0378,5179.0
31.0712,5292.0
31.1046,5069.0
31.1381,5159.0
31.1715,4991.0
31.2049,5187.0
31.2383,5220.0
31.2718,5343.0
31.3052,5171.0
31.3386,5133.0
31.372,5270.0
31.4054,5263.0
31.4389,5360.0
31.4723,5097.0
31.5057,5181.0
31.5391,5003.0
31.5726,4920.0
31.606,5112.0
31.6394,5184.0
31.6728,5161.0
31.7062,5146.0
31.7397,5202.0
31.7731,5167.0
31.8065,5216.0
31.8399,5047.0
31.8734,5104.0
31.9068,5248.0
31.9402,5202.0
31.9736,5134.0
32.007,5097.0
32.0405,5124.0
32.0739,5134.0
32.1073,5239.0
32.1407,5254.0
32.1742,5221.0
32.2076,5087.0
32.241,5175.0
32.2744,5252.0
32.3078,5241.0
32.3413,5290.0
32.3747,5081.0
32.4081,5261.0
32.4415,5281.0
32.475,5155.0
32.5084,5253.0
32.5418,5181.0
32.5752,5377.0
32.6087,5318.0
32.6421,5160.0
32.6755,5339.0
32.7089,5273.0
32.7423,5218.0
32.7758,5375.0
32.8092,5391.0
32.8426,5297.0
32.876,5343.0
32.9095,5465.0
32.9429,5460.0
32.9763,5461.0
33.0097,5371.0
33.0431,5374.0
33.0766,5425.0
33.11,5502.0
33.1434,5470.0
33.1768,5552.0
33.2103,5542.0
33.2437,5467.0
33.2771,5536.0
33.3105,5471.0
33.3439,5548.0
33.3774,5314.0
33.4108,5446.0
33.4442,5324.0
33.4776,5521.0
33.5111,5364.0
33.5445,5323.0
33.5779,5332.0
33.6113,5366.0
33.6448,5229.0
33.6782,5233.0
33.7116,5335.0
33.745,5359.0
33.7784,5067.0
33.8119,5203.0
33.8453,5369.0
33.8787,5247.0
33.9121,5353.0
33.9456,5358.0
33.979,5220.0
34.0124,5187.0
34.0458,5155.0
34.0792,5322.0
34.1127,5165.0
34.1461,5189.0
34.1795,5209.0
34.2129,5191.0
34.2464,5236.0
34.2798,5232.0
34.3132,5212.0
34.3466,5180.0
34.38,5067.0
34.4135,5108.0
34.4469,5101.0
34.4803,5159.0
34.5137,5066.0
34.5472,5038.0
34.5806,5082.0
34.614,5125.0
34.6474,5023.0
34.6808,5143.0
34.7143,5041.0
34.7477,5117.0
34.7811,5054.0
34.8145,5093.0
34.848,5104.0
34.8814,5041.0
34.9148,4993.0
34.9482,4969.0
34.9817,5036.0
35.0151,5015.0
35.0485,4992.0
35.0819,4933.0
35.1153,4959.0
35.1488,4867.0
35.1822,5053.0
35.2156,5106.0
35.249,4953.0
35.2825,4917.0
35.3159,4927.0
35.3493,4924.0
35.3827,4883.0
35.4161,4952.0
35.4496,4985.0
35.483,5053.0
35.5164,4858.0
35.5498,4936.0
35.5833,4846.0
35.6167,4896.0
35.6501,4954.0
35.6835,4883.0
35.7169,4928.0
35.7504,4977.0
35.7838,4935.0
35.8172,5107.0
35.8506,4801.0
35.8841,4951.0
35.9175,4925.0
35.9509,4950.0
35.9843,4879.0
36.0178,4880.0
36.0512,4900.0
36.0846,4926.0
36.118,4920.0
36.1514,4847.0
36.1849,4781.0
36.2183,4968.0
36.2517,4926.0
36.2851,4886.0
36.3186,4861.0
36.352,4875.0
36.3854,4915.0
36.4188,4903.0
36.4522,4774.0
36.4857,4825.0
36.5191,4833.0
36.5525,4959.0
36.5859,4762.0
36.6194,4742.0
36.6528,4949.0
36.6862,4874.0
36.7196,4808.0
36.753,4861.0
36.7865,4943.0
36.8199,4769.0
36.8533,4786.0
36.8867,4858.0
36.9202,4935.0
36.9536,4887.0
36.987,4897.0
37.0204,4893.0
37.0538,4839.0
37.0873,4909.0
37.1207,4829.0
37.1541,4917.0
37.1875,4927.0
37.221,4847.0
37.2544,4993.0
37.2878,4796.0
37.3212,4976.0
37.3547,4828.0
37.3881,4973.0
37.4215,4954.0
37.4549,5004.0
37.4883,5008.0
37.5218,4801.0
37.5552,4920.0
37.5886,4843.0
37.622,4915.0
37.6555,4906.0
37.6889,4867.0
37.7223,4845.0
37.7557,4967.0
37.7891,4937.0
37.8226,4975.0
37.856,4906.0
37.8894,4929.0
37.9228,4805.0
37.9563,4862.0
37.9897,4966.0
38.0231,4956.0
38.0565,4966.0
38.0899,4925.0
38.1234,4985.0
38.1568,4856.0
38.1902,4823.0
38.2236,5004.0
38.2571,4935.0
38.2905,4798.0
38.3239,4760.0
38.3573,4835.0
38.3908,4958.0
38.4242,4887.0
38.4576,4842.0
38.491,4874.0
38.5244,4950.0
38.5579,4937.0
38.5913,4921.0
38.6247,4814.0
38.6581,4881.0
38.6916,4972.0
38.725,5024.0
38.7584,4946.0
38.7918,4844.0
38.8252,4764.0
38.8587,4993.0
38.8921,4837.0
38.9255,4968.0
38.9589,4980.0
38.9924,4947.0
39.0258,5083.0
39.0592,5080.0
39.0926,5063.0
39.126,4835.0
39.1595,4931.0
39.1929,5028.0
39.2263,4832.0
39.2597,4927.0
39.2932,5035.0
39.3266,5038.0
39.36,4959.0
39.3934,4999.0
39.4269,5057.0
39.4603,5083.0
39.4937,5095.0
39.5271,5078.0
39.5605,5078.0
39.594,5186.0
39.6274,5205.0
39.6608,5067.0
39.6942,5196.0
39.7277,5116.0
39.7611,5207.0
39.7945,5172.0
39.8279,5197.0
39.8613,5227.0
39.8948,5229.0
39.9282,5360.0
39.9616,5172.0
39.995,5348.0
40.0285,5281.0
40.0619,5281.0
40.0953,5214.0
40.1287,5170.0
40.1621,5114.0
40.1956,5348.0
40.229,5377.0
40.2624,5222.0
40.2958,5239.0
40.3293,5008.0
40.3627,5045.0
40.3961,5057.0
40.4295,5055.0
40.4629,5143.0
40.4964,5106.0
40.5298,5146.0
40.5632,5155.0
40.5966,5117.0
40.6301,5137.0
40.6635,5047.0
40.6969,5090.0
40.7303,5108.0
40.7638,5020.0
40.7972,4936.0
40.8306,5047.0
40.864,4893.0
40.8974,4922.0
40.9309,4951.0
40.9643,4990.0
40.9977,4953.0
41.0311,5063.0
41.0646,5012.0
41.098,5035.0
41.1314,5021.0
41.1648,5108.0
41.1982,4968.0
41.2317,5024.0
41.2651,4871.0
41.2985,4877.0
41.3319,5000.0
41.3654,5052.0
41.3988,4976.0
41.4322,4910.0
41.4656,5023.0
41.499,4810.0
41.5325,4997.0
41.5659,4964.0
41.5993,4846.0
41.6327,4987.0
41.6662,4866.0
41.6996,4955.0
41.733,5037.0
41.7664,4973.0
41.7999,4881.0
41.8333,4924.0
41.8667,4923.0
41.9001,4945.0
41.9335,4981.0
41.967,4890.0
42.0004,4939.0
42.0338,4849.0
42.0672,4908.0
42.1007,4908.0
42.1341,4909.0
42.1675,4874.0
42.2009,4877.0
42.2343,4952.0
42.2678,5010.0
42.3012,5021.0
42.3346,4959.0
42.368,4954.0
42.4015,4950.0
42.4349,4907.0
42.4683,4938.0
42.5017,4817.0
42.5351,5076.0
42.5686,5029.0
42.602,5040.0
42.6354,4900.0
42.6688,4958.0
42.7023,4919.0
42.7357,4839.0
42.7691,4971.0
42.8025,4886.0
42.8359,4922.0
42.8694,4892.0
42.9028,4844.0
42.9362,4926.0
42.9696,4884.0
43.0031,4856.0
43.0365,4779.0
43.0699,4966.0
43.1033,4909.0
43.1368,4882.0
43.1702,4871.0
43.2036,4913.0
43.237,4864.0
43.2704,4925.0
43.3039,4940.0
43.3373,4908.0
43.3707,4917.0
43.4041,4926.0
43.4376,4992.0
43.471,4797.0
43.5044,4840.0
43.5378,4952.0
43.5712,4974.0
43.6047,4945.0
43.6381,4890.0
43.6715,4978.0
43.7049,4835.0
43.7384,5000.0
43.7718,4881.0
43.8052,4987.0
43.8386,4799.0
43.872,4912.0
43.9055,4781.0
43.9389,4795.0
43.9723,4940.0
44.0057,4816.0
44.0392,4934.0
44.0726,5021.0
44.106,4829.0
44.1394,4923.0
44.1729,4843.0
44.2063,4848.0
44.2397,4902.0
44.2731,4895.0
44.3065,4903.0
44.34,4974.0
44.3734,4895.0
44.4068,4904.0
44.4402,4892.0
44.4737,4917.0
44.5071,4782.0
44.5405,4856.0
44.5739,5007.0
44.6073,5019.0
44.6408,4853.0
44.6742,4807.0
44.7076,4909.0
44.741,4882.0
44.7745,4844.0
44.8079,4909.0
44.8413,4863.0
44.8747,4824.0
44.9081,4825.0
44.9416,4814.0
44.975,4936.0
45.0084,4890.0
45.0418,4842.0
45.0753,4818.0
45.1087,4867.0
45.1421,4926.0
45.1755,4986.0
45.2089,4922.0
45.2424,4982.0
45.2758,4886.0
45.3092,4967.0
45.3426,4942.0
45.3761,4849.0
45.4095,5124.0
45.4429,4882.0
45.4763,4941.0
45.5098,4767.0
45.5432,4886.0
45.5766,4830.0
45.61,4798.0
45.6434,4992.0
45.6769,4991.0
45.7103,4817.0
45.7437,4764.0
45.7771,4798.0
45.8106,4808.0
45.844,5020.0
45.8774,4825.0
45.9108,4930.0
45.9442,4736.0
45.9777,4964.0
46.0111,4925.0
46.0445,4805.0
46.0779,4855.0
46.1114,4874.0
46.1448,4802.0
46.1782,4896.0
46.2116,4889.0
46.245,4835.0
46.2785,4890.0
46.3119,4803.0
46.3453,4941.0
46.3787,4841.0
46.4122,4903.0
46.4456,4747.0
46.479,4953.0
46.5124,4908.0
46.5459,4881.0
46.5793,5046.0
46.6127,5029.0
46.6461,4889.0
46.6795,4825.0
46.713,4968.0
46.7464,4778.0
46.7798,4750.0
46.8132,4757.0
46.8467,4844.0
46.8801,4772.0
46.9135,4888.0
46.9469,4797.0
46.9803,4809.0
47.0138,4904.0
47.0472,4896.0
47.0806,4879.0
47.114,4959.0
47.1475,4781.0
47.1809,4844.0
47.2143,4888.0
47.2477,4862.0
47.2811,5019.0
47.3146,4985.0
47.348,4894.0
47.3814,4933.0
47.4148,4860.0
47.4483,4953.0
47.4817,4952.0
47.5151,4829.0
47.5485,4861.0
47.5819,4941.0
47.6154,5001.0
47.6488,4983.0
47.6822,5015.0
47.7156,4986.0
47.7491,4989.0
47.7825,5014.0
47.8159,5033.0
47.8493,4987.0
47.8828,5164.0
47.9162,5086.0
47.9496,5049.0
47.983,5102.0
48.0164,5053.0
48.0499,5184.0
48.0833,5167.0
48.1167,5233.0
48.1501,5169.0
48.1836,5261.0
48.217,5234.0
48.2504,5422.0
48.2838,5359.0
48.3172,5511.0
48.3507,5462.0
48.3841,5527.0
48.4175,5413.0
48.4509,5439.0
48.4844,5461.0
48.5178,5527.0
48.5512,5578.0
48.5846,5402.0
48.618,5555.0
48.6515,5524.0
48.6849,5395.0
48.7183,5398.0
48.7517,5369.0
48.7852,5363.0
48.8186,5241.0
48.852,5358.0
48.8854,5275.0
48.9189,5297.0
48.9523,5253.0
48.9857,5167.0
49.0191,5242.0
49.0525,5066.0
49.086,5205.0
49.1194,4958.0
49.1528,5188.0
49.1862,5140.0
49.2197,4957.0
49.2531,4902.0
49.2865,5020.0
49.3199,5041.0
49.3533,4915.0
49.3868,4935.0
49.4202,5107.0
49.4536,4890.0
49.487,5029.0
49.5205,5067.0
49.5539,5043.0
49.5873,5206.0
49.6207,4942.0
49.6541,5090.0
49.6876,4976.0
49.721,5133.0
49.7544,5035.0
49.7878,5006.0
49.8213,4909.0
49.8547,4988.0
49.8881,4956.0
49.9215,4952.0
49.9549,4918.0
49.9884,4879.0
50.0218,4953.0
50.0552,4954.0
50.0886,5067.0
50.1221,5086.0
50.1555,4894.0
50.1889,4969.0
50.2223,5003.0
50.2558,5025.0
50.2892,5035.0
50.3226,4941.0
50.356,4884.0
50.3894,5018.0
50.4229,4922.0
50.4563,4937.0
50.4897,4964.0
50.5231,5028.0
50.5566,4967.0
50.59,4958.0
50.6234,5064.0
50.6568,5019.0
50.6902,4988.0
50.7237,4880.0
50.7571,4958.0
50.7905,4895.0
50.8239,4952.0
50.8574,4915.0
50.8908,4922.0
50.9242,4977.0
50.9576,4857.0
50.991,4908.0
51.0245,5076.0
51.0579,5023.0
51.0913,4903.0
51.1247,4930.0
51.1582,4881.0
51.1916,4984.0
51.225,4987.0
51.2584,4961.0
51.2919,4827.0
51.3253,4929.0
51.3587,4813.0
51.3921,4913.0
51.4255,4839.0
51.459,4977.0
51.4924,4926.0
51.5258,4924.0
51.5592,4890.0
51.5927,4899.0
51.6261,4962.0
51.6595,4913.0
51.6929,4984.0
51.7263,4944.0
51.7598,4863.0
51.7932,4974.0
51.8266,4918.0
51.86,4954.0
51.8935,4801.0
51.9269,4844.0
51.9603,4810.0
51.9937,4922.0
52.0271,4959.0
52.0606,4918.0
52.094,4907.0
52.1274,4785.0
52.1608,4844.0
52.1943,4975.0
52.2277,4990.0
52.2611,4970.0
52.2945,4902.0
52.3279,4837.0
52.3614,4903.0
52.3948,4862.0
52.4282,4839.0
52.4616,4935.0
52.4951,5028.0
52.5285,4828.0
52.5619,4879.0
52.5953,4790.0
52.6288,4949.0
52.6622,5007.0
52.6956,4957.0
52.729,4847.0
52.7624,4965.0
52.7959,4900.0
52.8293,4928.0
52.8627,4917.0
52.8961,5008.0
52.9296,4983.0
52.963,5129.0
52.9964,5087.0
53.0298,4996.0
53.0632,5028.0
53.0967,4898.0
53.1301,4991.0
53.1635,5072.0
53.1969,4955.0
53.2304,5043.0
53.2638,5060.0
53.2972,5018.0
53.3306,5086.0
53.364,5038.0
53.3975,5177.0
53.4309,5108.0
53.4643,5015.0
53.4977,5024.0
53.5312,5167.0
53.5646,5123.0
53.598,5146.0
53.6314,5305.0
53.6649,5217.0
53.6983,5350.0
53.7317,5463.0
53.7651,5174.0
53.7985,5454.0
53.832,5359.0
53.8654,5443.0
53.8988,5486.0
53.9322,5436.0
53.9657,5499.0
53.9991,5564.0
54.0325,5436.0
54.0659,5478.0
54.0993,5618.0
54.1328,5348.0
54.1662,5474.0
54.1996,5564.0
54.233,5495.0
54.2665,5283.0
54.2999,5391.0
54.3333,5362.0
54.3667,5371.0
54.4001,5395.0
54.4336,5385.0
54.467,5378.0
54.5004,5371.0
54.5338,5238.0
54.5673,5342.0
54.6007,5277.0
54.6341,5276.0
54.6675,5162.0
54.701,5347.0
54.7344,5329.0
54.7678,5219.0
54.8012,5321.0
54.8346,5330.0
54.8681,5318.0
54.9015,5137.0
54.9349,5170.0
54.9683,5139.0
55.0018,5166.0
55.0352,5057.0
55.0686,5082.0
55.102,5144.0
55.1354,5143.0
55.1689,5103.0
55.2023,5222.0
55.2357,5138.0
55.2691,5138.0
55.3026,5115.0
55.336,5285.0
55.3694,5188.0
55.4028,5138.0
55.4362,5139.0
55.4697,5125.0
55.5031,5275.0
55.5365,5194.0
55.5699,5147.0
55.6034,5101.0
55.6368,5099.0
55.6702,5018.0
55.7036,5182.0
55.737,5078.0
55.7705,5080.0
55.8039,5081.0
55.8373,4960.0
55.8707,4953.0
55.9042,5054.0
55.9376,4993.0
55.971,5075.0
56.0044,5008.0
56.0379,5053.0
56.0713,4947.0
56.1047,4871.0
56.1381,5000.0
56.1715,4870.0
56.205,5019.0
56.2384,4866.0
56.2718,4940.0
56.3052,4875.0
56.3387,4875.0
56.3721,4989.0
56.4055,4942.0
56.4389,4956.0
56.4723,4874.0
56.5058,4906.0
56.5392,4924.0
56.5726,4921.0
56.606,4940.0
56.6395,4909.0
56.6729,4857.0
56.7063,4930.0
56.7397,4941.0
56.7731,4998.0
56.8066,4895.0
56.84,4802.0
56.8734,4894.0
56.9068,4945.0
56.9403,4972.0
56.9737,4913.0
57.0071,4821.0
57.0405,4906.0
57.074,4915.0
57.1074,4904.0
57.1408,4922.0
57.1742,4856.0
57.2076,4930.0
57.2411,5015.0
57.2745,4828.0
57.3079,4955.0
57.3413,4850.0
57.3748,4813.0
57.4082,4908.0
57.4416,4825.0
57.475,4770.0
57.5084,4765.0
57.5419,4891.0
57.5753,4870.0
57.6087,4834.0
57.6421,4734.0
57.6756,4726.0
57.709,4820.0
57.7424,4852.0
57.7758,4810.0
57.8092,4697.0
57.8427,4816.0
57.8761,4797.0
57.9095,4802.0
57.9429,4735.0
57.9764,4772.0
58.0098,4760.0
58.0432,4760.0
58.0766,4827.0
58.11,4833.0
58.1435,4881.0
58.1769,4746.0
58.2103,4823.0
58.2437,4896.0
58.2772,4829.0
58.3106,4685.0
58.344,4991.0
58.3774,4845.0
58.4109,4861.0
58.4443,4729.0
58.4777,4938.0
58.5111,4817.0
58.5445,4862.0
58.578,4800.0
58.6114,4845.0
58.6448,4971.0
58.6782,4892.0
58.7117,4877.0
58.7451,4809.0
58.7785,4898.0
58.8119,4964.0
58.8453,4804.0
58.8788,4884.0
58.9122,4865.0
58.9456,4807.0
58.979,4954.0
59.0125,4917.0
59.0459,4911.0
59.0793,4900.0
59.1127,4668.0
59.1461,4919.0
59.1796,4796.0
59.213,4779.0
59.2464,4801.0
59.2798,4807.0
59.3133,4897.0
59.3467,4908.0
59.3801,4868.0
59.4135,4795.0
59.447,4800.0
59.4804,4798.0
59.5138,4796.0
59.5472,4860.0
59.5806,4711.0
59.6141,4720.0
59.6475,4891.0
59.6809,4878.0
59.7143,4945.0
59.7478,4920.0
59.7812,4910.0
59.8146,4766.0
59.848,4858.0
59.8814,4894.0
59.9149,4991.0
59.9483,4874.0
59.9817,4780.0
60.0151,4889.0
60.0486,4827.0
60.082,4989.0
60.1154,4996.0
60.1488,4907.0
60.1822,5000.0
60.2157,4944.0
60.2491,4913.0
60.2825,4861.0
60.3159,4921.0
60.3494,4976.0
60.3828,5004.0
60.4162,5062.0
60.4496,4928.0
60.483,5032.0
60.5165,5109.0
60.5499,4931.0
60.5833,4983.0
60.6167,5007.0
60.6502,4999.0
60.6836,4967.0
60.717,4925.0
60.7504,5075.0
60.7839,4975.0
60.8173,4945.0
60.8507,5161.0
60.8841,4905.0
60.9175,4900.0
60.951,5022.0
60.9844,5094.0
61.0178,4965.0
61.0512,4964.0
61.0847,5028.0
61.1181,5054.0
61.1515,4945.0
61.1849,5079.0
61.2183,4977.0
61.2518,5053.0
61.2852,4892.0
61.3186,4970.0
61.352,5049.0
61.3855,4957.0
61.4189,4850.0
61.4523,4993.0
61.4857,5036.0
61.5191,5088.0
61.5526,4961.0
61.586,5030.0
61.6194,4934.0
61.6528,4942.0
61.6863,4954.0
61.7197,5039.0
61.7531,4960.0
61.7865,4923.0
61.82,5003.0
61.8534,5086.0
61.8868,4777.0
61.9202,4973.0
61.9536,4923.0
61.9871,4876.0
62.0205,4897.0
62.0539,4886.0
62.0873,4958.0
62.1208,4926.0
62.1542,4826.0
62.1876,4796.0
62.221,4876.0
62.2544,4906.0
62.2879,4893.0
62.3213,4847.0
62.3547,4866.0
62.3881,4926.0
62.4216,4864.0
62.455,4846.0
62.4884,4935.0
62.5218,4988.0
62.5552,4769.0
62.5887,4834.0
62.6221,4853.0
62.6555,4867.0
62.6889,4827.0
62.7224,4881.0
62.7558,4864.0
62.7892,4898.0
62.8226,4741.0
62.856,4930.0
62.8895,4808.0
62.9229,4910.0
62.9563,4856.0
62.9897,4883.0
63.0232,4762.0
63.0566,4727.0
63.09,4897.0
63.1234,4844.0
63.1569,4758.0
63.1903,4727.0
63.2237,4746.0
63.2571,4942.0
63.2905,4831.0
63.324,4800.0
63.3574,4937.0
63.3908,4896.0
63.4242,4761.0
63.4577,4936.0
63.4911,4867.0
63.5245,4801.0
63.5579,4785.0
63.5913,4699.0
63.6248,4841.0
63.6582,4702.0
63.6916,4892.0
63.725,4784.0
63.7585,4729.0
63.7919,4809.0
63.8253,4659.0
63.8587,4923.0
63.8921,4813.0
63.9256,4849.0
63.959,4668.0
63.9924,4762.0
64.0258,4722.0
64.0593,4734.0
64.0927,4787.0
64.1261,4683.0
64.1595,4713.0
64.193,4707.0
64.2264,4849.0
64.2598,4843.0
64.2932,4804.0
64.3266,4858.0
64.3601,4748.0
64.3935,4787.0
64.4269,4815.0
64.4603,4701.0
64.4938,4747.0
64.5272,4765.0
64.5606,4883.0
64.594,4642.0
64.6274,4663.0
64.6609,4682.0
64.6943,4836.0
64.7277,4758.0
64.7611,4925.0
64.7946,4785.0
64.828,4776.0
64.8614,4713.0
64.8948,4628.0
64.9282,4680.0
64.9617,4937.0
64.9951,4693.0
65.0285,4855.0
65.0619,4767.0
65.0954,4779.0
65.1288,4837.0
65.1622,4879.0
65.1956,4805.0
65.229,4677.0
65.2625,4678.0
65.2959,4693.0
65.3293,4844.0
65.3627,4720.0
65.3962,4808.0
65.4296,4725.0
65.463,4754.0
65.4964,4738.0
65.5299,4763.0
65.5633,4777.0
65.5967,4779.0
65.6301,4718.0
65.6635,4845.0
65.697,4771.0
65.7304,4655.0
65.7638,4919.0
65.7972,4819.0
65.8307,4752.0
65.8641,4783.0
65.8975,4704.0
65.9309,4687.0
65.9643,4675.0
65.9978,4735.0
66.0312,4871.0
66.0646,4839.0
66.098,4650.0
66.1315,4763.0
66.1649,4711.0
66.1983,4710.0
66.2317,4787.0
66.2651,4809.0
66.2986,4601.0
66.332,4764.0
66.3654,4708.0
66.3988,4721.0
66.4323,4726.0
66.4657,4652.0
66.4991,4718.0
66.5325,4615.0
66.566,4663.0
66.5994,4615.0
66.6328,4701.0
66.6662,4788.0
66.6996,4867.0
66.7331,4797.0
66.7665,4652.0
66.7999,4874.0
66.8333,4783.0
66.8668,4843.0
66.9002,4662.0
66.9336,4738.0
66.967,4802.0
67.0004,4734.0
67.0339,4839.0
67.0673,4802.0
67.1007,4714.0
67.1341,4679.0
67.1676,4647.0
67.201,4768.0
67.2344,4698.0
67.2678,4644.0
67.3012,4730.0
67.3347,4867.0
67.3681,4907.0
67.4015,4678.0
67.4349,4599.0
67.4684,4748.0
67.5018,4782.0
67.5352,4771.0
67.5686,4601.0
67.602,4663.0
67.6355,4661.0
67.6689,4709.0
67.7023,4826.0
67.7357,4718.0
67.7692,4650.0
67.8026,4767.0
67.836,4722.0
67.8694,4731.0
67.9029,4840.0
67.9363,4643.0
67.9697,4734.0
68.0031,4653.0
68.0365,4757.0
68.07,4850.0
68.1034,4690.0
68.1368,4760.0
68.1702,4857.0
68.2037,4811.0
68.2371,4770.0
68.2705,4825.0
68.3039,4646.0
68.3373,4682.0
68.3708,4742.0
68.4042,4714.0
68.4376,4866.0
68.471,4708.0
68.5045,4682.0
68.5379,4655.0
68.5713,4737.0
68.6047,4778.0
68.6381,4678.0
68.6716,4747.0
68.705,4771.0
68.7384,4727.0
68.7718,4742.0
68.8053,4695.0
68.8387,4797.0
68.8721,4701.0
68.9055,4771.0
68.939,4749.0
68.9724,4718.0
69.0058,4758.0
69.0392,4850.0
69.0726,4626.0
69.1061,4610.0
69.1395,4930.0
69.1729,4781.0
69.2063,4736.0
69.2398,4763.0
69.2732,4781.0
69.3066,4782.0
69.34,4940.0
69.3734,4603.0
69.4069,4782.0
69.4403,4765.0
69.4737,4909.0
69.5071,4798.0
69.5406,4865.0
69.574,4820.0
69.6074,4843.0
69.6408,4817.0
69.6742,4884.0
69.7077,4788.0
69.7411,4862.0
69.7745,4787.0
69.8079,4786.0
69.8414,4825.0
69.8748,4878.0
69.9082,4814.0
69.9416,4678.0
69.975,4780.0
69.9918,4887.0