File: herald_visualization/XRD_Plotting/Figures/CoF3/20250212_20-70deg_40min_CoF3_as_received.csv
2Theta,Intensity
20.0084,13995.0
20.0418,13979.0
20.0752,14008.0
20.1086,13912.0
20.142,14088.0
20.1755,13747.0
20.2089,13739.0
20.2423,13889.0
20.2757,13767.0
20.3092,13885.0
20.3426,13849.0
20.376,13978.0
20.4094,14038.0
20.4428,13857.0
20.4763,14018.0
20.5097,13777.0
20.5431,13589.0
20.5765,13927.0
20.61,13851.0
20.6434,13850.0
20.6768,13910.0
20.7102,13821.0
20.7437,13992.0
20.7771,13652.0
20.8105,13758.0
20.8439,14033.0
20.8773,13887.0
20.9108,13948.0
20.9442,13890.0
20.9776,13703.0
21.011,13669.0
21.0445,13608.0
21.0779,13660.0
21.1113,13538.0
21.1447,13662.0
21.1781,13717.0
21.2116,13647.0
21.245,13748.0
21.2784,13482.0
21.3118,13537.0
21.3453,13642.0
21.3787,13786.0
21.4121,13600.0
21.4455,13499.0
21.4789,13443.0
21.5124,13683.0
21.5458,13511.0
21.5792,13551.0
21.6126,13719.0
21.6461,13810.0
21.6795,13685.0
21.7129,13725.0
21.7463,13358.0
21.7798,13497.0
21.8132,13453.0
21.8466,13389.0
21.88,13492.0
21.9134,13381.0
21.9469,13674.0
21.9803,13552.0
22.0137,13610.0
22.0471,13407.0
22.0806,13252.0
22.114,13608.0
22.1474,13567.0
22.1808,13579.0
22.2142,13382.0
22.2477,13310.0
22.2811,13400.0
22.3145,13445.0
22.3479,13469.0
22.3814,13417.0
22.4148,13386.0
22.4482,13216.0
22.4816,13384.0
22.515,13439.0
22.5485,13364.0
22.5819,13443.0
22.6153,13342.0
22.6487,13407.0
22.6822,13365.0
22.7156,13380.0
22.749,13395.0
22.7824,13144.0
22.8158,13481.0
22.8493,13397.0
22.8827,13391.0
22.9161,13476.0
22.9495,13340.0
22.983,13394.0
23.0164,13384.0
23.0498,13177.0
23.0832,13470.0
23.1167,13301.0
23.1501,13367.0
23.1835,13328.0
23.2169,13299.0
23.2503,13300.0
23.2838,13373.0
23.3172,13135.0
23.3506,13232.0
23.384,13236.0
23.4175,13460.0
23.4509,13379.0
23.4843,13328.0
23.5177,13470.0
23.5511,13592.0
23.5846,13532.0
23.618,13486.0
23.6514,13521.0
23.6848,13456.0
23.7183,13540.0
23.7517,13676.0
23.7851,13696.0
23.8185,13494.0
23.8519,13561.0
23.8854,13447.0
23.9188,13763.0
23.9522,13780.0
23.9856,13750.0
24.0191,13834.0
24.0525,14171.0
24.0859,14290.0
24.1193,14679.0
24.1528,14798.0
24.1862,15604.0
24.2196,16319.0
24.253,17752.0
24.2864,19268.0
24.3199,21406.0
24.3533,24253.0
24.3867,26918.0
24.4201,28970.0
24.4536,28830.0
24.487,26560.0
24.5204,23947.0
24.5538,20568.0
24.5872,18000.0
24.6207,16480.0
24.6541,15234.0
24.6875,14896.0
24.7209,14505.0
24.7544,14213.0
24.7878,13815.0
24.8212,13836.0
24.8546,13622.0
24.888,13821.0
24.9215,13569.0
24.9549,13755.0
24.9883,13496.0
25.0217,13422.0
25.0552,13514.0
25.0886,13530.0
25.122,13510.0
25.1554,13611.0
25.1888,13379.0
25.2223,13477.0
25.2557,13324.0
25.2891,13721.0
25.3225,13417.0
25.356,13389.0
25.3894,13483.0
25.4228,13658.0
25.4562,13406.0
25.4897,13521.0
25.5231,13664.0
25.5565,13432.0
25.5899,13487.0
25.6233,13629.0
25.6568,13543.0
25.6902,13862.0
25.7236,13621.0
25.757,13802.0
25.7905,13691.0
25.8239,13640.0
25.8573,13517.0
25.8907,13422.0
25.9241,13485.0
25.9576,13814.0
25.991,13529.0
26.0244,13253.0
26.0578,13496.0
26.0913,13427.0
26.1247,13397.0
26.1581,13592.0
26.1915,13719.0
26.2249,13533.0
26.2584,13472.0
26.2918,13387.0
26.3252,13549.0
26.3586,13580.0
26.3921,13558.0
26.4255,13841.0
26.4589,13653.0
26.4923,13751.0
26.5258,13824.0
26.5592,13640.0
26.5926,13706.0
26.626,13654.0
26.6594,13707.0
26.6929,13993.0
26.7263,13754.0
26.7597,13731.0
26.7931,13649.0
26.8266,13701.0
26.86,13618.0
26.8934,13675.0
26.9268,13696.0
26.9602,13545.0
26.9937,13747.0
27.0271,13457.0
27.0605,13554.0
27.0939,13413.0
27.1274,13538.0
27.1608,13499.0
27.1942,13409.0
27.2276,13489.0
27.261,13477.0
27.2945,13344.0
27.3279,13463.0
27.3613,13495.0
27.3947,13456.0
27.4282,13702.0
27.4616,13295.0
27.495,13318.0
27.5284,13705.0
27.5618,13427.0
27.5953,13583.0
27.6287,13317.0
27.6621,13428.0
27.6955,13449.0
27.729,13435.0
27.7624,13609.0
27.7958,13344.0
27.8292,13540.0
27.8627,13547.0
27.8961,13327.0
27.9295,13642.0
27.9629,13263.0
27.9963,13423.0
28.0298,13363.0
28.0632,13468.0
28.0966,13575.0
28.13,13316.0
28.1635,13472.0
28.1969,13300.0
28.2303,13660.0
28.2637,13347.0
28.2971,13413.0
28.3306,13190.0
28.364,13310.0
28.3974,13298.0
28.4308,13550.0
28.4643,13284.0
28.4977,13485.0
28.5311,13469.0
28.5645,13366.0
28.5979,13268.0
28.6314,13043.0
28.6648,13454.0
28.6982,13291.0
28.7316,13139.0
28.7651,13608.0
28.7985,13409.0
28.8319,13341.0
28.8653,13276.0
28.8988,13527.0
28.9322,13318.0
28.9656,13137.0
28.999,13538.0
29.0324,13247.0
29.0659,13400.0
29.0993,13261.0
29.1327,13303.0
29.1661,13440.0
29.1996,13348.0
29.233,13284.0
29.2664,13307.0
29.2998,13128.0
29.3332,13254.0
29.3667,12841.0
29.4001,13170.0
29.4335,13392.0
29.4669,13335.0
29.5004,13328.0
29.5338,13220.0
29.5672,13065.0
29.6006,13418.0
29.634,13037.0
29.6675,13247.0
29.7009,13363.0
29.7343,13072.0
29.7677,13121.0
29.8012,13240.0
29.8346,13293.0
29.868,13097.0
29.9014,13157.0
29.9348,13156.0
29.9683,13189.0
30.0017,13262.0
30.0351,13083.0
30.0685,13172.0
30.102,12960.0
30.1354,12997.0
30.1688,13261.0
30.2022,13118.0
30.2357,13095.0
30.2691,13115.0
30.3025,13296.0
30.3359,13068.0
30.3693,12984.0
30.4028,13370.0
30.4362,12966.0
30.4696,13124.0
30.503,13129.0
30.5365,13104.0
30.5699,13392.0
30.6033,13202.0
30.6367,13007.0
30.6701,13155.0
30.7036,13300.0
30.737,13032.0
30.7704,13298.0
30.8038,13105.0
30.8373,13142.0
30.8707,13218.0
30.9041,12960.0
30.9375,13025.0
30.9709,13221.0
31.0044,12986.0
31.0378,13196.0
31.0712,13274.0
31.1046,13234.0
31.1381,13221.0
31.1715,12909.0
31.2049,12971.0
31.2383,13089.0
31.2718,12899.0
31.3052,13046.0
31.3386,12971.0
31.372,13002.0
31.4054,13027.0
31.4389,12923.0
31.4723,13196.0
31.5057,13091.0
31.5391,12880.0
31.5726,13223.0
31.606,13030.0
31.6394,13051.0
31.6728,12947.0
31.7062,13078.0
31.7397,12892.0
31.7731,13161.0
31.8065,12972.0
31.8399,12981.0
31.8734,12895.0
31.9068,12900.0
31.9402,12950.0
31.9736,12838.0
32.007,13028.0
32.0405,13128.0
32.0739,13136.0
32.1073,13060.0
32.1407,12927.0
32.1742,13012.0
32.2076,13150.0
32.241,13190.0
32.2744,13005.0
32.3078,12972.0
32.3413,12968.0
32.3747,13041.0
32.4081,12913.0
32.4415,12782.0
32.475,13011.0
32.5084,12962.0
32.5418,12810.0
32.5752,12801.0
32.6087,12973.0
32.6421,13162.0
32.6755,12895.0
32.7089,12872.0
32.7423,13173.0
32.7758,12965.0
32.8092,12953.0
32.8426,12954.0
32.876,13019.0
32.9095,13220.0
32.9429,12748.0
32.9763,13070.0
33.0097,13164.0
33.0431,13142.0
33.0766,12939.0
33.11,13161.0
33.1434,12993.0
33.1768,12947.0
33.2103,12994.0
33.2437,12935.0
33.2771,12980.0
33.3105,13047.0
33.3439,12935.0
33.3774,13029.0
33.4108,12914.0
33.4442,12995.0
33.4776,12853.0
33.5111,12829.0
33.5445,13035.0
33.5779,13137.0
33.6113,13191.0
33.6448,13257.0
33.6782,13162.0
33.7116,13326.0
33.745,13057.0
33.7784,13325.0
33.8119,13731.0
33.8453,13930.0
33.8787,14073.0
33.9121,14513.0
33.9456,14848.0
33.979,15098.0
34.0124,15137.0
34.0458,15018.0
34.0792,14801.0
34.1127,14758.0
34.1461,14257.0
34.1795,14063.0
34.2129,13731.0
34.2464,13384.0
34.2798,13316.0
34.3132,13035.0
34.3466,12989.0
34.38,13115.0
34.4135,12774.0
34.4469,13168.0
34.4803,12937.0
34.5137,12869.0
34.5472,13141.0
34.5806,12911.0
34.614,13076.0
34.6474,13131.0
34.6808,12954.0
34.7143,13040.0
34.7477,12951.0
34.7811,12890.0
34.8145,12820.0
34.848,12949.0
34.8814,12822.0
34.9148,13043.0
34.9482,13225.0
34.9817,12903.0
35.0151,13017.0
35.0485,13082.0
35.0819,12915.0
35.1153,12920.0
35.1488,12900.0
35.1822,12981.0
35.2156,12884.0
35.249,13014.0
35.2825,13021.0
35.3159,13033.0
35.3493,13114.0
35.3827,13009.0
35.4161,13009.0
35.4496,13109.0
35.483,13235.0
35.5164,13311.0
35.5498,13484.0
35.5833,13699.0
35.6167,13712.0
35.6501,13737.0
35.6835,13573.0
35.7169,13758.0
35.7504,13481.0
35.7838,13439.0
35.8172,13127.0
35.8506,13452.0
35.8841,12965.0
35.9175,13212.0
35.9509,12937.0
35.9843,12924.0
36.0178,13010.0
36.0512,13123.0
36.0846,13045.0
36.118,13003.0
36.1514,13047.0
36.1849,12974.0
36.2183,13050.0
36.2517,12891.0
36.2851,12871.0
36.3186,12795.0
36.352,12900.0
36.3854,12985.0
36.4188,13016.0
36.4522,12934.0
36.4857,12728.0
36.5191,12811.0
36.5525,13065.0
36.5859,13071.0
36.6194,12900.0
36.6528,13008.0
36.6862,13050.0
36.7196,12765.0
36.753,12892.0
36.7865,12900.0
36.8199,12808.0
36.8533,12943.0
36.8867,12747.0
36.9202,12974.0
36.9536,12909.0
36.987,12987.0
37.0204,12758.0
37.0538,12937.0
37.0873,12980.0
37.1207,12812.0
37.1541,12924.0
37.1875,12832.0
37.221,12789.0
37.2544,12868.0
37.2878,12758.0
37.3212,12930.0
37.3547,12702.0
37.3881,12878.0
37.4215,12994.0
37.4549,12915.0
37.4883,12687.0
37.5218,12684.0
37.5552,12857.0
37.5886,12922.0
37.622,12999.0
37.6555,13092.0
37.6889,12918.0
37.7223,12824.0
37.7557,12875.0
37.7891,12819.0
37.8226,12794.0
37.856,12945.0
37.8894,12848.0
37.9228,12795.0
37.9563,12616.0
37.9897,12860.0
38.0231,12867.0
38.0565,13117.0
38.0899,12935.0
38.1234,12879.0
38.1568,12728.0
38.1902,12788.0
38.2236,12759.0
38.2571,12895.0
38.2905,12803.0
38.3239,13061.0
38.3573,12891.0
38.3908,12798.0
38.4242,12449.0
38.4576,12842.0
38.491,12825.0
38.5244,12767.0
38.5579,12716.0
38.5913,12773.0
38.6247,12626.0
38.6581,13060.0
38.6916,12652.0
38.725,12747.0
38.7584,13185.0
38.7918,12721.0
38.8252,12826.0
38.8587,12918.0
38.8921,12879.0
38.9255,12830.0
38.9589,12827.0
38.9924,13012.0
39.0258,12899.0
39.0592,12735.0
39.0926,12754.0
39.126,12953.0
39.1595,12757.0
39.1929,12998.0
39.2263,12963.0
39.2597,12810.0
39.2932,12935.0
39.3266,12765.0
39.36,12872.0
39.3934,13015.0
39.4269,12875.0
39.4603,12738.0
39.4937,12845.0
39.5271,12883.0
39.5605,12918.0
39.594,12648.0
39.6274,12821.0
39.6608,12748.0
39.6942,12665.0
39.7277,12813.0
39.7611,12503.0
39.7945,12856.0
39.8279,12978.0
39.8613,12718.0
39.8948,13032.0
39.9282,12833.0
39.9616,12890.0
39.995,12839.0
40.0285,12979.0
40.0619,12871.0
40.0953,12760.0
40.1287,12609.0
40.1621,12721.0
40.1956,12828.0
40.229,12845.0
40.2624,12851.0
40.2958,12794.0
40.3293,12927.0
40.3627,12897.0
40.3961,12952.0
40.4295,12855.0
40.4629,12947.0
40.4964,12875.0
40.5298,12854.0
40.5632,12920.0
40.5966,12983.0
40.6301,12800.0
40.6635,12949.0
40.6969,12954.0
40.7303,12816.0
40.7638,12728.0
40.7972,12798.0
40.8306,12883.0
40.864,13066.0
40.8974,13001.0
40.9309,13081.0
40.9643,13062.0
40.9977,13173.0
41.0311,13253.0
41.0646,13551.0
41.098,13730.0
41.1314,13816.0
41.1648,14346.0
41.1982,14725.0
41.2317,14747.0
41.2651,14959.0
41.2985,14817.0
41.3319,14763.0
41.3654,14786.0
41.3988,14171.0
41.4322,14207.0
41.4656,13728.0
41.499,13807.0
41.5325,13434.0
41.5659,13166.0
41.5993,13073.0
41.6327,12943.0
41.6662,12924.0
41.6996,12781.0
41.733,12758.0
41.7664,12882.0
41.7999,12976.0
41.8333,13188.0
41.8667,12989.0
41.9001,12985.0
41.9335,12930.0
41.967,12880.0
42.0004,13084.0
42.0338,12737.0
42.0672,12921.0
42.1007,12943.0
42.1341,12847.0
42.1675,12969.0
42.2009,12746.0
42.2343,12878.0
42.2678,12859.0
42.3012,12782.0
42.3346,12886.0
42.368,12814.0
42.4015,12750.0
42.4349,12812.0
42.4683,12926.0
42.5017,13115.0
42.5351,12806.0
42.5686,12853.0
42.602,12772.0
42.6354,12861.0
42.6688,12804.0
42.7023,12770.0
42.7357,12813.0
42.7691,12816.0
42.8025,12853.0
42.8359,12911.0
42.8694,12811.0
42.9028,13046.0
42.9362,13043.0
42.9696,12714.0
43.0031,12723.0
43.0365,12808.0
43.0699,12846.0
43.1033,12900.0
43.1368,12811.0
43.1702,12953.0
43.2036,13020.0
43.237,13008.0
43.2704,12998.0
43.3039,13074.0
43.3373,13067.0
43.3707,12930.0
43.4041,12868.0
43.4376,12918.0
43.471,13190.0
43.5044,13060.0
43.5378,12973.0
43.5712,13052.0
43.6047,13092.0
43.6381,13016.0
43.6715,13083.0
43.7049,13172.0
43.7384,13045.0
43.7718,13102.0
43.8052,13219.0
43.8386,13143.0
43.872,12907.0
43.9055,12913.0
43.9389,12932.0
43.9723,12924.0
44.0057,12846.0
44.0392,12815.0
44.0726,12841.0
44.106,12852.0
44.1394,13045.0
44.1729,12863.0
44.2063,12840.0
44.2397,12637.0
44.2731,12843.0
44.3065,12682.0
44.34,12715.0
44.3734,12985.0
44.4068,12799.0
44.4402,12883.0
44.4737,13111.0
44.5071,12505.0
44.5405,12731.0
44.5739,12809.0
44.6073,12920.0
44.6408,12832.0
44.6742,12859.0
44.7076,13064.0
44.741,12660.0
44.7745,12924.0
44.8079,12689.0
44.8413,12676.0
44.8747,12827.0
44.9081,12966.0
44.9416,12588.0
44.975,12915.0
45.0084,12856.0
45.0418,12947.0
45.0753,12817.0
45.1087,12838.0
45.1421,12835.0
45.1755,12927.0
45.2089,12680.0
45.2424,13046.0
45.2758,12884.0
45.3092,12799.0
45.3426,12627.0
45.3761,12685.0
45.4095,12917.0
45.4429,13000.0
45.4763,13050.0
45.5098,12895.0
45.5432,12691.0
45.5766,12691.0
45.61,13001.0
45.6434,12827.0
45.6769,12686.0
45.7103,12901.0
45.7437,12929.0
45.7771,12942.0
45.8106,12757.0
45.844,12769.0
45.8774,12672.0
45.9108,12822.0
45.9442,12626.0
45.9777,13071.0
46.0111,12769.0
46.0445,12617.0
46.0779,12831.0
46.1114,13039.0
46.1448,12607.0
46.1782,12701.0
46.2116,13056.0
46.245,12808.0
46.2785,12788.0
46.3119,12620.0
46.3453,12713.0
46.3787,12634.0
46.4122,12808.0
46.4456,12658.0
46.479,12966.0
46.5124,12742.0
46.5459,12850.0
46.5793,12840.0
46.6127,12606.0
46.6461,12952.0
46.6795,12829.0
46.713,12671.0
46.7464,12619.0
46.7798,12795.0
46.8132,12687.0
46.8467,12539.0
46.8801,12873.0
46.9135,12788.0
46.9469,12800.0
46.9803,12781.0
47.0138,12808.0
47.0472,12619.0
47.0806,12782.0
47.114,12949.0
47.1475,12512.0
47.1809,12860.0
47.2143,12639.0
47.2477,12447.0
47.2811,12766.0
47.3146,12950.0
47.348,12709.0
47.3814,12743.0
47.4148,12860.0
47.4483,12787.0
47.4817,13049.0
47.5151,12669.0
47.5485,12723.0
47.5819,12587.0
47.6154,12612.0
47.6488,12874.0
47.6822,12775.0
47.7156,12751.0
47.7491,12903.0
47.7825,12982.0
47.8159,12748.0
47.8493,12607.0
47.8828,12915.0
47.9162,12869.0
47.9496,12846.0
47.983,12764.0
48.0164,13008.0
48.0499,12722.0
48.0833,12903.0
48.1167,12730.0
48.1501,12989.0
48.1836,12775.0
48.217,12417.0
48.2504,12689.0
48.2838,12816.0
48.3172,12995.0
48.3507,12861.0
48.3841,13011.0
48.4175,12716.0
48.4509,12605.0
48.4844,12831.0
48.5178,12775.0
48.5512,12723.0
48.5846,12939.0
48.618,12839.0
48.6515,12848.0
48.6849,12742.0
48.7183,12736.0
48.7517,12940.0
48.7852,12595.0
48.8186,12854.0
48.852,12790.0
48.8854,12815.0
48.9189,12832.0
48.9523,12781.0
48.9857,12789.0
49.0191,12882.0
49.0525,12816.0
49.086,12650.0
49.1194,12678.0
49.1528,12868.0
49.1862,12851.0
49.2197,12711.0
49.2531,12861.0
49.2865,12657.0
49.3199,12894.0
49.3533,12693.0
49.3868,12851.0
49.4202,12940.0
49.4536,12704.0
49.487,12840.0
49.5205,12969.0
49.5539,12922.0
49.5873,12893.0
49.6207,12835.0
49.6541,13082.0
49.6876,13134.0
49.721,12955.0
49.7544,13077.0
49.7878,13124.0
49.8213,13313.0
49.8547,13156.0
49.8881,13652.0
49.9215,13885.0
49.9549,13945.0
49.9884,14384.0
50.0218,14681.0
50.0552,14800.0
50.0886,15200.0
50.1221,15118.0
50.1555,14748.0
50.1889,14817.0
50.2223,14348.0
50.2558,14124.0
50.2892,13983.0
50.3226,13555.0
50.356,13523.0
50.3894,13391.0
50.4229,13276.0
50.4563,13089.0
50.4897,13083.0
50.5231,13076.0
50.5566,12936.0
50.59,12809.0
50.6234,12812.0
50.6568,12894.0
50.6902,12903.0
50.7237,12933.0
50.7571,12736.0
50.7905,12835.0
50.8239,12908.0
50.8574,12628.0
50.8908,12863.0
50.9242,12973.0
50.9576,12638.0
50.991,12765.0
51.0245,12976.0
51.0579,12780.0
51.0913,12642.0
51.1247,13170.0
51.1582,12815.0
51.1916,12687.0
51.225,12887.0
51.2584,12810.0
51.2919,13088.0
51.3253,12883.0
51.3587,12840.0
51.3921,12878.0
51.4255,12880.0
51.459,12740.0
51.4924,12942.0
51.5258,12749.0
51.5592,12714.0
51.5927,12795.0
51.6261,12914.0
51.6595,12641.0
51.6929,12867.0
51.7263,12777.0
51.7598,12742.0
51.7932,12796.0
51.8266,12797.0
51.86,12676.0
51.8935,12734.0
51.9269,12798.0
51.9603,12846.0
51.9937,12880.0
52.0271,13090.0
52.0606,12742.0
52.094,12927.0
52.1274,12727.0
52.1608,12892.0
52.1943,12760.0
52.2277,12956.0
52.2611,12921.0
52.2945,12668.0
52.3279,12935.0
52.3614,12832.0
52.3948,12789.0
52.4282,12897.0
52.4616,12958.0
52.4951,12752.0
52.5285,12765.0
52.5619,12684.0
52.5953,12989.0
52.6288,12871.0
52.6622,12846.0
52.6956,12885.0
52.729,12921.0
52.7624,12776.0
52.7959,12830.0
52.8293,12911.0
52.8627,12846.0
52.8961,12835.0
52.9296,12688.0
52.963,12921.0
52.9964,12861.0
53.0298,12935.0
53.0632,12837.0
53.0967,12855.0
53.1301,13028.0
53.1635,13007.0
53.1969,12658.0
53.2304,12884.0
53.2638,12866.0
53.2972,12873.0
53.3306,12793.0
53.364,12727.0
53.3975,12884.0
53.4309,12880.0
53.4643,12753.0
53.4977,12931.0
53.5312,12978.0
53.5646,12725.0
53.598,12807.0
53.6314,12803.0
53.6649,12738.0
53.6983,12935.0
53.7317,12909.0
53.7651,12616.0
53.7985,12794.0
53.832,12948.0
53.8654,13017.0
53.8988,12803.0
53.9322,12993.0
53.9657,12900.0
53.9991,12751.0
54.0325,12779.0
54.0659,12751.0
54.0993,12919.0
54.1328,12815.0
54.1662,12905.0
54.1996,12892.0
54.233,12609.0
54.2665,12789.0
54.2999,12877.0
54.3333,12883.0
54.3667,12996.0
54.4001,12898.0
54.4336,12758.0
54.467,12940.0
54.5004,13058.0
54.5338,13009.0
54.5673,13061.0
54.6007,13072.0
54.6341,13004.0
54.6675,12855.0
54.701,12957.0
54.7344,12899.0
54.7678,12945.0
54.8012,13126.0
54.8346,13053.0
54.8681,12840.0
54.9015,12972.0
54.9349,12971.0
54.9683,13212.0
55.0018,13167.0
55.0352,12947.0
55.0686,13517.0
55.102,13598.0
55.1354,13811.0
55.1689,13989.0
55.2023,13834.0
55.2357,14371.0
55.2691,14783.0
55.3026,15171.0
55.336,15444.0
55.3694,15674.0
55.4028,15421.0
55.4362,15351.0
55.4697,14950.0
55.5031,14836.0
55.5365,14586.0
55.5699,14141.0
55.6034,14294.0
55.6368,13622.0
55.6702,13444.0
55.7036,13356.0
55.737,13243.0
55.7705,13494.0
55.8039,13319.0
55.8373,13327.0
55.8707,13088.0
55.9042,13416.0
55.9376,13199.0
55.971,12969.0
56.0044,12893.0
56.0379,12981.0
56.0713,13301.0
56.1047,13108.0
56.1381,13178.0
56.1715,13182.0
56.205,13151.0
56.2384,13177.0
56.2718,13280.0
56.3052,12971.0
56.3387,13124.0
56.3721,12980.0
56.4055,13157.0
56.4389,13039.0
56.4723,12990.0
56.5058,12925.0
56.5392,12984.0
56.5726,13130.0
56.606,13229.0
56.6395,12793.0
56.6729,12968.0
56.7063,13056.0
56.7397,12907.0
56.7731,12985.0
56.8066,12860.0
56.84,12836.0
56.8734,12909.0
56.9068,13003.0
56.9403,13081.0
56.9737,12989.0
57.0071,12988.0
57.0405,12976.0
57.074,13061.0
57.1074,13204.0
57.1408,12955.0
57.1742,13029.0
57.2076,13156.0
57.2411,13034.0
57.2745,13238.0
57.3079,13186.0
57.3413,13301.0
57.3748,13341.0
57.4082,13208.0
57.4416,13519.0
57.475,13605.0
57.5084,13630.0
57.5419,13496.0
57.5753,13612.0
57.6087,14019.0
57.6421,13901.0
57.6756,13919.0
57.709,13904.0
57.7424,13669.0
57.7758,13700.0
57.8092,13620.0
57.8427,13405.0
57.8761,13400.0
57.9095,13304.0
57.9429,13144.0
57.9764,13348.0
58.0098,12857.0
58.0432,13104.0
58.0766,13186.0
58.11,12993.0
58.1435,13162.0
58.1769,13061.0
58.2103,12978.0
58.2437,13036.0
58.2772,12918.0
58.3106,13007.0
58.344,12762.0
58.3774,13138.0
58.4109,13072.0
58.4443,12905.0
58.4777,12952.0
58.5111,12852.0
58.5445,12815.0
58.578,12919.0
58.6114,12798.0
58.6448,12984.0
58.6782,12977.0
58.7117,12796.0
58.7451,13011.0
58.7785,13003.0
58.8119,12904.0
58.8453,12924.0
58.8788,12920.0
58.9122,13198.0
58.9456,12938.0
58.979,12964.0
59.0125,12923.0
59.0459,12760.0
59.0793,12761.0
59.1127,13063.0
59.1461,12779.0
59.1796,12836.0
59.213,12874.0
59.2464,12954.0
59.2798,12915.0
59.3133,13029.0
59.3467,12684.0
59.3801,12898.0
59.4135,12795.0
59.447,12793.0
59.4804,12909.0
59.5138,13234.0
59.5472,13041.0
59.5806,13312.0
59.6141,12990.0
59.6475,13348.0
59.6809,13004.0
59.7143,13151.0
59.7478,13254.0
59.7812,13228.0
59.8146,13239.0
59.848,13266.0
59.8814,13315.0
59.9149,13394.0
59.9483,12934.0
59.9817,13070.0
60.0151,12989.0
60.0486,13276.0
60.082,12850.0
60.1154,13225.0
60.1488,12957.0
60.1822,12956.0
60.2157,12765.0
60.2491,12946.0
60.2825,12759.0
60.3159,12852.0
60.3494,12962.0
60.3828,12779.0
60.4162,12814.0
60.4496,12914.0
60.483,12591.0
60.5165,12719.0
60.5499,12929.0
60.5833,13109.0
60.6167,13055.0
60.6502,13010.0
60.6836,12720.0
60.717,13034.0
60.7504,12870.0
60.7839,12999.0
60.8173,13026.0
60.8507,12899.0
60.8841,12894.0
60.9175,12812.0
60.951,12676.0
60.9844,12938.0
61.0178,13078.0
61.0512,13017.0
61.0847,13021.0
61.1181,12952.0
61.1515,12914.0
61.1849,13067.0
61.2183,12678.0
61.2518,12964.0
61.2852,13064.0
61.3186,12793.0
61.352,13031.0
61.3855,12892.0
61.4189,12890.0
61.4523,13068.0
61.4857,13035.0
61.5191,12904.0
61.5526,12868.0
61.586,12854.0
61.6194,12873.0
61.6528,12939.0
61.6863,13031.0
61.7197,13052.0
61.7531,12924.0
61.7865,12933.0
61.82,12906.0
61.8534,12777.0
61.8868,13164.0
61.9202,12965.0
61.9536,13020.0
61.9871,13015.0
62.0205,12936.0
62.0539,13034.0
62.0873,13016.0
62.1208,13056.0
62.1542,12872.0
62.1876,12963.0
62.221,12894.0
62.2544,12966.0
62.2879,13034.0
62.3213,12907.0
62.3547,12730.0
62.3881,12835.0
62.4216,12860.0
62.455,13271.0
62.4884,12955.0
62.5218,12994.0
62.5552,12956.0
62.5887,13027.0
62.6221,13157.0
62.6555,13255.0
62.6889,13017.0
62.7224,13173.0
62.7558,13128.0
62.7892,13135.0
62.8226,13562.0
62.856,13482.0
62.8895,13560.0
62.9229,13606.0
62.9563,13512.0
62.9897,13552.0
63.0232,13499.0
63.0566,13558.0
63.09,13563.0
63.1234,13421.0
63.1569,13371.0
63.1903,13654.0
63.2237,13390.0
63.2571,13262.0
63.2905,13175.0
63.324,13216.0
63.3574,13081.0
63.3908,13008.0
63.4242,13237.0
63.4577,13147.0
63.4911,13133.0
63.5245,13186.0
63.5579,13103.0
63.5913,13153.0
63.6248,13142.0
63.6582,13192.0
63.6916,13180.0
63.725,13221.0
63.7585,13360.0
63.7919,13173.0
63.8253,13239.0
63.8587,13310.0
63.8921,13510.0
63.9256,13568.0
63.959,13306.0
63.9924,13653.0
64.0258,13584.0
64.0593,13445.0
64.0927,13590.0
64.1261,13372.0
64.1595,13591.0
64.193,13511.0
64.2264,13642.0
64.2598,13227.0
64.2932,13333.0
64.3266,13206.0
64.3601,13340.0
64.3935,13252.0
64.4269,13184.0
64.4603,13064.0
64.4938,13153.0
64.5272,12961.0
64.5606,12997.0
64.594,12922.0
64.6274,13264.0
64.6609,13029.0
64.6943,13063.0
64.7277,12809.0
64.7611,13064.0
64.7946,13070.0
64.828,13087.0
64.8614,12910.0
64.8948,13203.0
64.9282,13005.0
64.9617,12914.0
64.9951,13061.0
65.0285,12884.0
65.0619,13072.0
65.0954,13000.0
65.1288,13013.0
65.1622,12932.0
65.1956,12753.0
65.229,13014.0
65.2625,12935.0
65.2959,13099.0
65.3293,12804.0
65.3627,13074.0
65.3962,13052.0
65.4296,12721.0
65.463,12855.0
65.4964,13080.0
65.5299,13031.0
65.5633,12951.0
65.5967,12961.0
65.6301,12932.0
65.6635,12819.0
65.697,12926.0
65.7304,12971.0
65.7638,12919.0
65.7972,12996.0
65.8307,12916.0
65.8641,13091.0
65.8975,12821.0
65.9309,12851.0
65.9643,12983.0
65.9978,12978.0
66.0312,13061.0
66.0646,12831.0
66.098,12920.0
66.1315,13068.0
66.1649,12733.0
66.1983,12882.0
66.2317,12972.0
66.2651,12958.0
66.2986,13052.0
66.332,13073.0
66.3654,13086.0
66.3988,13007.0
66.4323,13051.0
66.4657,12843.0
66.4991,12929.0
66.5325,13157.0
66.566,13169.0
66.5994,13084.0
66.6328,13186.0
66.6662,12948.0
66.6996,13120.0
66.7331,12915.0
66.7665,12863.0
66.7999,13010.0
66.8333,13057.0
66.8668,13094.0
66.9002,13180.0
66.9336,13097.0
66.967,13144.0
67.0004,13088.0
67.0339,12877.0
67.0673,12587.0
67.1007,13025.0
67.1341,13143.0
67.1676,12934.0
67.201,12982.0
67.2344,12864.0
67.2678,12925.0
67.3012,12957.0
67.3347,13228.0
67.3681,12981.0
67.4015,13111.0
67.4349,12911.0
67.4684,12810.0
67.5018,13102.0
67.5352,12958.0
67.5686,13135.0
67.602,13097.0
67.6355,13183.0
67.6689,12996.0
67.7023,13221.0
67.7357,13191.0
67.7692,13000.0
67.8026,12925.0
67.836,12952.0
67.8694,12753.0
67.9029,12988.0
67.9363,12875.0
67.9697,12955.0
68.0031,12980.0
68.0365,13062.0
68.07,12835.0
68.1034,12979.0
68.1368,13104.0
68.1702,12872.0
68.2037,12841.0
68.2371,12841.0
68.2705,13161.0
68.3039,13023.0
68.3373,12995.0
68.3708,13198.0
68.4042,12784.0
68.4376,12947.0
68.471,12845.0
68.5045,13027.0
68.5379,12763.0
68.5713,12956.0
68.6047,12956.0
68.6381,12915.0
68.6716,12980.0
68.705,12973.0
68.7384,12841.0
68.7718,13051.0
68.8053,12931.0
68.8387,12922.0
68.8721,12740.0
68.9055,13102.0
68.939,13048.0
68.9724,13019.0
69.0058,13106.0
69.0392,12864.0
69.0726,12821.0
69.1061,12995.0
69.1395,13027.0
69.1729,13140.0
69.2063,12995.0
69.2398,12963.0
69.2732,12784.0
69.3066,12986.0
69.34,13010.0
69.3734,12898.0
69.4069,12874.0
69.4403,12943.0
69.4737,12800.0
69.5071,12986.0
69.5406,13032.0
69.574,12809.0
69.6074,13084.0
69.6408,12955.0
69.6742,13067.0
69.7077,12968.0
69.7411,12811.0
69.7745,12925.0
69.8079,13002.0
69.8414,12870.0
69.8748,13095.0
69.9082,13021.0
69.9416,12914.0
69.975,13125.0
69.9918,12970.0