File: herald_visualization/XRD_Plotting/Figures/LiFeF2/250207-FeF2(LiF)-ball_milled_24h-20-70deg-40min.csv
2Theta,Intensity
20.0084,8814.0
20.0418,8587.0
20.0752,8722.0
20.1086,8646.0
20.142,8434.0
20.1755,8647.0
20.2089,8580.0
20.2423,8831.0
20.2757,8504.0
20.3092,8521.0
20.3426,8488.0
20.376,8557.0
20.4094,8457.0
20.4428,8517.0
20.4763,8413.0
20.5097,8471.0
20.5431,8427.0
20.5765,8353.0
20.61,8258.0
20.6434,8340.0
20.6768,8158.0
20.7102,8261.0
20.7437,8241.0
20.7771,8071.0
20.8105,8209.0
20.8439,8119.0
20.8773,8312.0
20.9108,8253.0
20.9442,8128.0
20.9776,8402.0
21.011,8110.0
21.0445,8234.0
21.0779,8043.0
21.1113,8102.0
21.1447,8022.0
21.1781,7983.0
21.2116,8004.0
21.245,8038.0
21.2784,7940.0
21.3118,8064.0
21.3453,7925.0
21.3787,8102.0
21.4121,7912.0
21.4455,7989.0
21.4789,7935.0
21.5124,7904.0
21.5458,7865.0
21.5792,7815.0
21.6126,7865.0
21.6461,7818.0
21.6795,7871.0
21.7129,7823.0
21.7463,7788.0
21.7798,7780.0
21.8132,7790.0
21.8466,7789.0
21.88,7709.0
21.9134,7672.0
21.9469,7719.0
21.9803,7548.0
22.0137,7776.0
22.0471,7669.0
22.0806,7747.0
22.114,7799.0
22.1474,7623.0
22.1808,7687.0
22.2142,7640.0
22.2477,7471.0
22.2811,7608.0
22.3145,7670.0
22.3479,7574.0
22.3814,7352.0
22.4148,7518.0
22.4482,7546.0
22.4816,7324.0
22.515,7525.0
22.5485,7520.0
22.5819,7558.0
22.6153,7482.0
22.6487,7385.0
22.6822,7333.0
22.7156,7454.0
22.749,7503.0
22.7824,7486.0
22.8158,7293.0
22.8493,7468.0
22.8827,7366.0
22.9161,7377.0
22.9495,7190.0
22.983,7550.0
23.0164,7433.0
23.0498,7536.0
23.0832,7452.0
23.1167,7451.0
23.1501,7588.0
23.1835,7563.0
23.2169,7620.0
23.2503,7763.0
23.2838,7928.0
23.3172,8158.0
23.3506,8155.0
23.384,8218.0
23.4175,8370.0
23.4509,8836.0
23.4843,9605.0
23.5177,10295.0
23.5511,12038.0
23.5846,13736.0
23.618,16574.0
23.6514,19398.0
23.6848,20725.0
23.7183,20123.0
23.7517,18637.0
23.7851,16176.0
23.8185,14060.0
23.8519,12272.0
23.8854,11203.0
23.9188,10235.0
23.9522,9298.0
23.9856,8658.0
24.0191,8145.0
24.0525,7985.0
24.0859,7731.0
24.1193,7786.0
24.1528,7711.0
24.1862,7515.0
24.2196,7270.0
24.253,7318.0
24.2864,7260.0
24.3199,7065.0
24.3533,7155.0
24.3867,7157.0
24.4201,7119.0
24.4536,6963.0
24.487,6862.0
24.5204,7138.0
24.5538,6933.0
24.5872,6988.0
24.6207,7045.0
24.6541,6986.0
24.6875,6875.0
24.7209,6885.0
24.7544,7034.0
24.7878,6936.0
24.8212,6813.0
24.8546,7064.0
24.888,6947.0
24.9215,6999.0
24.9549,6836.0
24.9883,6898.0
25.0217,6732.0
25.0552,6868.0
25.0886,6768.0
25.122,6766.0
25.1554,6906.0
25.1888,6873.0
25.2223,6854.0
25.2557,6903.0
25.2891,6693.0
25.3225,7008.0
25.356,6681.0
25.3894,6740.0
25.4228,6725.0
25.4562,6818.0
25.4897,7014.0
25.5231,6831.0
25.5565,6776.0
25.5899,6785.0
25.6233,6920.0
25.6568,6689.0
25.6902,6602.0
25.7236,6778.0
25.757,6761.0
25.7905,6875.0
25.8239,6871.0
25.8573,6823.0
25.8907,6963.0
25.9241,6793.0
25.9576,6737.0
25.991,6798.0
26.0244,6877.0
26.0578,6940.0
26.0913,6777.0
26.1247,6652.0
26.1581,6778.0
26.1915,6561.0
26.2249,6636.0
26.2584,6835.0
26.2918,6776.0
26.3252,6855.0
26.3586,6854.0
26.3921,6796.0
26.4255,7052.0
26.4589,6929.0
26.4923,6958.0
26.5258,6902.0
26.5592,7065.0
26.5926,7256.0
26.626,7280.0
26.6594,7520.0
26.6929,7536.0
26.7263,7537.0
26.7597,7325.0
26.7931,7283.0
26.8266,7059.0
26.86,6922.0
26.8934,6969.0
26.9268,7043.0
26.9602,6955.0
26.9937,7044.0
27.0271,7004.0
27.0605,7023.0
27.0939,6903.0
27.1274,7042.0
27.1608,7152.0
27.1942,7016.0
27.2276,7090.0
27.261,7075.0
27.2945,7203.0
27.3279,7206.0
27.3613,7160.0
27.3947,7024.0
27.4282,6941.0
27.4616,6879.0
27.495,6920.0
27.5284,6769.0
27.5618,6822.0
27.5953,6834.0
27.6287,6780.0
27.6621,6784.0
27.6955,6507.0
27.729,6750.0
27.7624,6633.0
27.7958,6524.0
27.8292,6701.0
27.8627,6651.0
27.8961,6477.0
27.9295,6477.0
27.9629,6532.0
27.9963,6657.0
28.0298,6616.0
28.0632,6700.0
28.0966,6835.0
28.13,6609.0
28.1635,6604.0
28.1969,6559.0
28.2303,6709.0
28.2637,6610.0
28.2971,6553.0
28.3306,6517.0
28.364,6628.0
28.3974,6721.0
28.4308,6436.0
28.4643,6657.0
28.4977,6567.0
28.5311,6548.0
28.5645,6471.0
28.5979,6482.0
28.6314,6583.0
28.6648,6608.0
28.6982,6571.0
28.7316,6438.0
28.7651,6518.0
28.7985,6504.0
28.8319,6459.0
28.8653,6284.0
28.8988,6441.0
28.9322,6471.0
28.9656,6355.0
28.999,6460.0
29.0324,6417.0
29.0659,6394.0
29.0993,6441.0
29.1327,6431.0
29.1661,6460.0
29.1996,6450.0
29.233,6589.0
29.2664,6342.0
29.2998,6318.0
29.3332,6558.0
29.3667,6452.0
29.4001,6468.0
29.4335,6532.0
29.4669,6452.0
29.5004,6517.0
29.5338,6291.0
29.5672,6502.0
29.6006,6549.0
29.634,6483.0
29.6675,6399.0
29.7009,6436.0
29.7343,6459.0
29.7677,6364.0
29.8012,6353.0
29.8346,6437.0
29.868,6447.0
29.9014,6272.0
29.9348,6444.0
29.9683,6273.0
30.0017,6665.0
30.0351,6423.0
30.0685,6380.0
30.102,6294.0
30.1354,6304.0
30.1688,6174.0
30.2022,6309.0
30.2357,6219.0
30.2691,6458.0
30.3025,6325.0
30.3359,6347.0
30.3693,6337.0
30.4028,6422.0
30.4362,6351.0
30.4696,6371.0
30.503,6281.0
30.5365,6474.0
30.5699,6313.0
30.6033,6272.0
30.6367,6231.0
30.6701,6323.0
30.7036,6253.0
30.737,6237.0
30.7704,6297.0
30.8038,6394.0
30.8373,6435.0
30.8707,6232.0
30.9041,6262.0
30.9375,6325.0
30.9709,6224.0
31.0044,6280.0
31.0378,6214.0
31.0712,6347.0
31.1046,6301.0
31.1381,6158.0
31.1715,6434.0
31.2049,6304.0
31.2383,6394.0
31.2718,6303.0
31.3052,6188.0
31.3386,6231.0
31.372,6256.0
31.4054,6239.0
31.4389,6238.0
31.4723,6232.0
31.5057,6264.0
31.5391,6331.0
31.5726,6227.0
31.606,6259.0
31.6394,6280.0
31.6728,6260.0
31.7062,6477.0
31.7397,6352.0
31.7731,6376.0
31.8065,6272.0
31.8399,6262.0
31.8734,6316.0
31.9068,6273.0
31.9402,6196.0
31.9736,6302.0
32.007,6416.0
32.0405,6225.0
32.0739,6123.0
32.1073,6228.0
32.1407,6305.0
32.1742,6290.0
32.2076,6334.0
32.241,6383.0
32.2744,6259.0
32.3078,6253.0
32.3413,6251.0
32.3747,6202.0
32.4081,6324.0
32.4415,6305.0
32.475,6414.0
32.5084,6246.0
32.5418,6288.0
32.5752,6325.0
32.6087,6410.0
32.6421,6399.0
32.6755,6391.0
32.7089,6367.0
32.7423,6406.0
32.7758,6369.0
32.8092,6375.0
32.8426,6587.0
32.876,6595.0
32.9095,6583.0
32.9429,6556.0
32.9763,6751.0
33.0097,6885.0
33.0431,6866.0
33.0766,6918.0
33.11,6834.0
33.1434,6975.0
33.1768,7191.0
33.2103,7088.0
33.2437,7551.0
33.2771,7719.0
33.3105,7719.0
33.3439,7475.0
33.3774,7554.0
33.4108,7386.0
33.4442,7109.0
33.4776,7086.0
33.5111,7003.0
33.5445,6841.0
33.5779,6655.0
33.6113,6639.0
33.6448,6449.0
33.6782,6481.0
33.7116,6497.0
33.745,6513.0
33.7784,6386.0
33.8119,6280.0
33.8453,6261.0
33.8787,6378.0
33.9121,6578.0
33.9456,6370.0
33.979,6482.0
34.0124,6370.0
34.0458,6427.0
34.0792,6461.0
34.1127,6486.0
34.1461,6450.0
34.1795,6712.0
34.2129,6573.0
34.2464,6688.0
34.2798,6729.0
34.3132,6848.0
34.3466,6840.0
34.38,6619.0
34.4135,6666.0
34.4469,6522.0
34.4803,6365.0
34.5137,6359.0
34.5472,6485.0
34.5806,6317.0
34.614,6240.0
34.6474,6219.0
34.6808,6275.0
34.7143,6148.0
34.7477,6308.0
34.7811,6325.0
34.8145,6263.0
34.848,6132.0
34.8814,6222.0
34.9148,6158.0
34.9482,6188.0
34.9817,6214.0
35.0151,6281.0
35.0485,6254.0
35.0819,6181.0
35.1153,5981.0
35.1488,6322.0
35.1822,6148.0
35.2156,6322.0
35.249,6140.0
35.2825,6152.0
35.3159,6053.0
35.3493,6003.0
35.3827,6085.0
35.4161,6230.0
35.4496,6131.0
35.483,6036.0
35.5164,6007.0
35.5498,6046.0
35.5833,6068.0
35.6167,6106.0
35.6501,6292.0
35.6835,6085.0
35.7169,6148.0
35.7504,6113.0
35.7838,6138.0
35.8172,6135.0
35.8506,6158.0
35.8841,6161.0
35.9175,5997.0
35.9509,6020.0
35.9843,6148.0
36.0178,6186.0
36.0512,6098.0
36.0846,6085.0
36.118,6159.0
36.1514,6141.0
36.1849,6091.0
36.2183,6026.0
36.2517,6192.0
36.2851,6055.0
36.3186,6273.0
36.352,6096.0
36.3854,6181.0
36.4188,6042.0
36.4522,6133.0
36.4857,6043.0
36.5191,5943.0
36.5525,6010.0
36.5859,6190.0
36.6194,6038.0
36.6528,6151.0
36.6862,6046.0
36.7196,6034.0
36.753,6046.0
36.7865,6108.0
36.8199,6074.0
36.8533,6133.0
36.8867,6195.0
36.9202,6066.0
36.9536,6093.0
36.987,6092.0
37.0204,6122.0
37.0538,6132.0
37.0873,6135.0
37.1207,6085.0
37.1541,6149.0
37.1875,6024.0
37.221,6141.0
37.2544,6068.0
37.2878,6175.0
37.3212,6138.0
37.3547,6184.0
37.3881,6187.0
37.4215,6191.0
37.4549,6031.0
37.4883,6192.0
37.5218,6161.0
37.5552,6193.0
37.5886,6003.0
37.622,6087.0
37.6555,6175.0
37.6889,6025.0
37.7223,6277.0
37.7557,5970.0
37.7891,6020.0
37.8226,6179.0
37.856,6145.0
37.8894,6155.0
37.9228,6163.0
37.9563,6112.0
37.9897,6191.0
38.0231,6228.0
38.0565,6187.0
38.0899,6188.0
38.1234,6317.0
38.1568,6303.0
38.1902,6434.0
38.2236,6368.0
38.2571,6426.0
38.2905,6439.0
38.3239,6355.0
38.3573,6504.0
38.3908,6383.0
38.4242,6695.0
38.4576,6679.0
38.491,6803.0
38.5244,7023.0
38.5579,7345.0
38.5913,7236.0
38.6247,7278.0
38.6581,7306.0
38.6916,7115.0
38.725,6893.0
38.7584,6824.0
38.7918,6505.0
38.8252,6338.0
38.8587,6398.0
38.8921,6272.0
38.9255,6191.0
38.9589,6177.0
38.9924,6195.0
39.0258,6045.0
39.0592,6059.0
39.0926,6134.0
39.126,6070.0
39.1595,5954.0
39.1929,6077.0
39.2263,6211.0
39.2597,6112.0
39.2932,6171.0
39.3266,5968.0
39.36,6198.0
39.3934,6307.0
39.4269,5958.0
39.4603,6071.0
39.4937,6152.0
39.5271,6143.0
39.5605,6227.0
39.594,6191.0
39.6274,6198.0
39.6608,6425.0
39.6942,6312.0
39.7277,6412.0
39.7611,6497.0
39.7945,6565.0
39.8279,6743.0
39.8613,6624.0
39.8948,6842.0
39.9282,6984.0
39.9616,7408.0
39.995,7417.0
40.0285,7490.0
40.0619,7415.0
40.0953,7297.0
40.1287,7227.0
40.1621,7115.0
40.1956,6902.0
40.229,6768.0
40.2624,6546.0
40.2958,6585.0
40.3293,6463.0
40.3627,6420.0
40.3961,6291.0
40.4295,6416.0
40.4629,6201.0
40.4964,6356.0
40.5298,6229.0
40.5632,6318.0
40.5966,6381.0
40.6301,6194.0
40.6635,6215.0
40.6969,6331.0
40.7303,6155.0
40.7638,6199.0
40.7972,6375.0
40.8306,6235.0
40.864,6325.0
40.8974,6315.0
40.9309,6172.0
40.9643,6037.0
40.9977,6086.0
41.0311,6115.0
41.0646,6067.0
41.098,6124.0
41.1314,6169.0
41.1648,6055.0
41.1982,6205.0
41.2317,6087.0
41.2651,6183.0
41.2985,6243.0
41.3319,6152.0
41.3654,6090.0
41.3988,6164.0
41.4322,6113.0
41.4656,6055.0
41.499,6114.0
41.5325,6010.0
41.5659,6044.0
41.5993,6010.0
41.6327,6071.0
41.6662,6139.0
41.6996,6102.0
41.733,6002.0
41.7664,6006.0
41.7999,6114.0
41.8333,6195.0
41.8667,6265.0
41.9001,5915.0
41.9335,6170.0
41.967,6106.0
42.0004,6162.0
42.0338,6191.0
42.0672,6266.0
42.1007,6383.0
42.1341,6239.0
42.1675,6223.0
42.2009,6242.0
42.2343,6171.0
42.2678,6269.0
42.3012,6049.0
42.3346,6156.0
42.368,6155.0
42.4015,6150.0
42.4349,6167.0
42.4683,6232.0
42.5017,6151.0
42.5351,6074.0
42.5686,6057.0
42.602,6147.0
42.6354,6056.0
42.6688,6225.0
42.7023,6100.0
42.7357,6247.0
42.7691,6162.0
42.8025,6245.0
42.8359,6325.0
42.8694,6096.0
42.9028,6158.0
42.9362,6175.0
42.9696,6211.0
43.0031,6177.0
43.0365,6194.0
43.0699,6155.0
43.1033,6084.0
43.1368,6234.0
43.1702,6197.0
43.2036,6158.0
43.237,6176.0
43.2704,6137.0
43.3039,6282.0
43.3373,6001.0
43.3707,6044.0
43.4041,6082.0
43.4376,6227.0
43.471,6319.0
43.5044,6172.0
43.5378,6254.0
43.5712,6144.0
43.6047,6186.0
43.6381,6155.0
43.6715,6297.0
43.7049,6059.0
43.7384,6132.0
43.7718,6130.0
43.8052,6239.0
43.8386,6124.0
43.872,6184.0
43.9055,6024.0
43.9389,6092.0
43.9723,6045.0
44.0057,6099.0
44.0392,6167.0
44.0726,6109.0
44.106,6083.0
44.1394,6141.0
44.1729,6161.0
44.2063,6039.0
44.2397,6194.0
44.2731,6041.0
44.3065,6178.0
44.34,6272.0
44.3734,6250.0
44.4068,6254.0
44.4402,6192.0
44.4737,6092.0
44.5071,6290.0
44.5405,6222.0
44.5739,6316.0
44.6073,6333.0
44.6408,6423.0
44.6742,6562.0
44.7076,6672.0
44.741,6846.0
44.7745,7073.0
44.8079,7460.0
44.8413,7680.0
44.8747,8022.0
44.9081,7859.0
44.9416,7740.0
44.975,7690.0
45.0084,7362.0
45.0418,7200.0
45.0753,6877.0
45.1087,6537.0
45.1421,6434.0
45.1755,6492.0
45.2089,6282.0
45.2424,6449.0
45.2758,6249.0
45.3092,6376.0
45.3426,6093.0
45.3761,6117.0
45.4095,6175.0
45.4429,6116.0
45.4763,6131.0
45.5098,6304.0
45.5432,6206.0
45.5766,6247.0
45.61,6111.0
45.6434,6097.0
45.6769,6010.0
45.7103,6218.0
45.7437,6086.0
45.7771,6086.0
45.8106,6128.0
45.844,6183.0
45.8774,6169.0
45.9108,6198.0
45.9442,6141.0
45.9777,6103.0
46.0111,6009.0
46.0445,5987.0
46.0779,6060.0
46.1114,6166.0
46.1448,6125.0
46.1782,6083.0
46.2116,6275.0
46.245,6122.0
46.2785,6054.0
46.3119,6011.0
46.3453,6076.0
46.3787,6136.0
46.4122,6222.0
46.4456,5984.0
46.479,6180.0
46.5124,5955.0
46.5459,6258.0
46.5793,6093.0
46.6127,6123.0
46.6461,6123.0
46.6795,6259.0
46.713,6256.0
46.7464,6185.0
46.7798,6356.0
46.8132,6088.0
46.8467,6108.0
46.8801,6078.0
46.9135,6119.0
46.9469,6102.0
46.9803,6101.0
47.0138,6137.0
47.0472,6109.0
47.0806,6156.0
47.114,6205.0
47.1475,6144.0
47.1809,6060.0
47.2143,6247.0
47.2477,6144.0
47.2811,6213.0
47.3146,6068.0
47.348,6282.0
47.3814,6242.0
47.4148,6139.0
47.4483,6103.0
47.4817,6056.0
47.5151,6124.0
47.5485,6239.0
47.5819,6284.0
47.6154,6183.0
47.6488,6215.0
47.6822,6224.0
47.7156,6285.0
47.7491,6188.0
47.7825,6392.0
47.8159,6199.0
47.8493,6338.0
47.8828,6158.0
47.9162,6294.0
47.9496,6385.0
47.983,6389.0
48.0164,6223.0
48.0499,6274.0
48.0833,6449.0
48.1167,6316.0
48.1501,6385.0
48.1836,6466.0
48.217,6614.0
48.2504,6615.0
48.2838,6705.0
48.3172,6775.0
48.3507,6832.0
48.3841,6870.0
48.4175,7054.0
48.4509,7199.0
48.4844,7719.0
48.5178,8196.0
48.5512,8206.0
48.5846,8381.0
48.618,8852.0
48.6515,8524.0
48.6849,8359.0
48.7183,8290.0
48.7517,8078.0
48.7852,7690.0
48.8186,7385.0
48.852,7355.0
48.8854,6991.0
48.9189,6807.0
48.9523,6832.0
48.9857,6591.0
49.0191,6461.0
49.0525,6387.0
49.086,6544.0
49.1194,6400.0
49.1528,6412.0
49.1862,6296.0
49.2197,6431.0
49.2531,6415.0
49.2865,6239.0
49.3199,6431.0
49.3533,6235.0
49.3868,6437.0
49.4202,6223.0
49.4536,6195.0
49.487,6257.0
49.5205,6281.0
49.5539,6221.0
49.5873,6163.0
49.6207,6158.0
49.6541,6218.0
49.6876,6379.0
49.721,6287.0
49.7544,6214.0
49.7878,6208.0
49.8213,6249.0
49.8547,6225.0
49.8881,6177.0
49.9215,6131.0
49.9549,6177.0
49.9884,6144.0
50.0218,6123.0
50.0552,6311.0
50.0886,6115.0
50.1221,6153.0
50.1555,6071.0
50.1889,6115.0
50.2223,6246.0
50.2558,6345.0
50.2892,6213.0
50.3226,6113.0
50.356,6249.0
50.3894,6260.0
50.4229,6171.0
50.4563,6134.0
50.4897,6231.0
50.5231,6207.0
50.5566,6227.0
50.59,6234.0
50.6234,6262.0
50.6568,6129.0
50.6902,6164.0
50.7237,6264.0
50.7571,6149.0
50.7905,6329.0
50.8239,6186.0
50.8574,6387.0
50.8908,6285.0
50.9242,6273.0
50.9576,6188.0
50.991,6205.0
51.0245,6152.0
51.0579,6163.0
51.0913,6221.0
51.1247,6199.0
51.1582,6497.0
51.1916,6286.0
51.225,6318.0
51.2584,6554.0
51.2919,6285.0
51.3253,6481.0
51.3587,6573.0
51.3921,6527.0
51.4255,6645.0
51.459,6517.0
51.4924,6428.0
51.5258,6451.0
51.5592,6367.0
51.5927,6437.0
51.6261,6406.0
51.6595,6312.0
51.6929,6412.0
51.7263,6341.0
51.7598,6244.0
51.7932,6352.0
51.8266,6273.0
51.86,6338.0
51.8935,6192.0
51.9269,6304.0
51.9603,6202.0
51.9937,6127.0
52.0271,6353.0
52.0606,6371.0
52.094,6103.0
52.1274,6218.0
52.1608,6474.0
52.1943,6364.0
52.2277,6348.0
52.2611,6302.0
52.2945,6419.0
52.3279,6215.0
52.3614,6329.0
52.3948,6304.0
52.4282,6312.0
52.4616,6161.0
52.4951,6256.0
52.5285,6124.0
52.5619,6177.0
52.5953,6369.0
52.6288,6281.0
52.6622,6308.0
52.6956,6156.0
52.729,6406.0
52.7624,6332.0
52.7959,6374.0
52.8293,6333.0
52.8627,6309.0
52.8961,6269.0
52.9296,6376.0
52.963,6229.0
52.9964,6137.0
53.0298,6158.0
53.0632,6366.0
53.0967,6097.0
53.1301,6297.0
53.1635,6261.0
53.1969,6289.0
53.2304,6298.0
53.2638,6049.0
53.2972,6460.0
53.3306,6217.0
53.364,6374.0
53.3975,6261.0
53.4309,6391.0
53.4643,6185.0
53.4977,6238.0
53.5312,6354.0
53.5646,6430.0
53.598,6470.0
53.6314,6444.0
53.6649,6623.0
53.6983,6635.0
53.7317,6686.0
53.7651,6457.0
53.7985,6549.0
53.832,6692.0
53.8654,6863.0
53.8988,6738.0
53.9322,7088.0
53.9657,7142.0
53.9991,7319.0
54.0325,7725.0
54.0659,7722.0
54.0993,8122.0
54.1328,8210.0
54.1662,8390.0
54.1996,8311.0
54.233,7939.0
54.2665,7940.0
54.2999,7706.0
54.3333,7611.0
54.3667,7597.0
54.4001,7211.0
54.4336,7063.0
54.467,6926.0
54.5004,6945.0
54.5338,6705.0
54.5673,6842.0
54.6007,6720.0
54.6341,6854.0
54.6675,6658.0
54.701,6586.0
54.7344,6592.0
54.7678,6552.0
54.8012,6610.0
54.8346,6699.0
54.8681,6614.0
54.9015,6586.0
54.9349,6599.0
54.9683,6775.0
55.0018,6623.0
55.0352,6479.0
55.0686,6657.0
55.102,6692.0
55.1354,6809.0
55.1689,6854.0
55.2023,6823.0
55.2357,6794.0
55.2691,6784.0
55.3026,6930.0
55.336,6967.0
55.3694,6913.0
55.4028,6948.0
55.4362,7224.0
55.4697,6976.0
55.5031,7400.0
55.5365,7243.0
55.5699,7187.0
55.6034,7159.0
55.6368,6930.0
55.6702,7033.0
55.7036,6876.0
55.737,6885.0
55.7705,6814.0
55.8039,6725.0
55.8373,6637.0
55.8707,6711.0
55.9042,6551.0
55.9376,6525.0
55.971,6380.0
56.0044,6521.0
56.0379,6392.0
56.0713,6509.0
56.1047,6404.0
56.1381,6474.0
56.1715,6394.0
56.205,6412.0
56.2384,6420.0
56.2718,6437.0
56.3052,6275.0
56.3387,6195.0
56.3721,6363.0
56.4055,6293.0
56.4389,6392.0
56.4723,6339.0
56.5058,6423.0
56.5392,6416.0
56.5726,6253.0
56.606,6357.0
56.6395,6183.0
56.6729,6386.0
56.7063,6354.0
56.7397,6154.0
56.7731,6281.0
56.8066,6326.0
56.84,6125.0
56.8734,6179.0
56.9068,6307.0
56.9403,6326.0
56.9737,6298.0
57.0071,6285.0
57.0405,6352.0
57.074,6261.0
57.1074,6109.0
57.1408,6207.0
57.1742,6193.0
57.2076,6225.0
57.2411,6337.0
57.2745,6258.0
57.3079,6164.0
57.3413,6185.0
57.3748,6175.0
57.4082,6257.0
57.4416,6199.0
57.475,6022.0
57.5084,6235.0
57.5419,6250.0
57.5753,6321.0
57.6087,6181.0
57.6421,6129.0
57.6756,6322.0
57.709,6125.0
57.7424,6278.0
57.7758,6280.0
57.8092,6296.0
57.8427,6153.0
57.8761,6169.0
57.9095,6196.0
57.9429,6302.0
57.9764,6279.0
58.0098,6195.0
58.0432,6197.0
58.0766,6193.0
58.11,6162.0
58.1435,6221.0
58.1769,6294.0
58.2103,6262.0
58.2437,6251.0
58.2772,6221.0
58.3106,6229.0
58.344,6112.0
58.3774,6161.0
58.4109,6144.0
58.4443,6130.0
58.4777,6185.0
58.5111,6195.0
58.5445,6353.0
58.578,6335.0
58.6114,6332.0
58.6448,6361.0
58.6782,6277.0
58.7117,6347.0
58.7451,6309.0
58.7785,6261.0
58.8119,6426.0
58.8453,6425.0
58.8788,6351.0
58.9122,6398.0
58.9456,6327.0
58.979,6356.0
59.0125,6418.0
59.0459,6399.0
59.0793,6257.0
59.1127,6365.0
59.1461,6413.0
59.1796,6240.0
59.213,6319.0
59.2464,6259.0
59.2798,6427.0
59.3133,6265.0
59.3467,6217.0
59.3801,6218.0
59.4135,6339.0
59.447,6361.0
59.4804,6309.0
59.5138,6250.0
59.5472,6242.0
59.5806,6293.0
59.6141,6210.0
59.6475,6123.0
59.6809,6297.0
59.7143,6353.0
59.7478,6143.0
59.7812,6226.0
59.8146,6285.0
59.848,6317.0
59.8814,6085.0
59.9149,6179.0
59.9483,6251.0
59.9817,6258.0
60.0151,6275.0
60.0486,6085.0
60.082,6221.0
60.1154,6365.0
60.1488,6156.0
60.1822,6312.0
60.2157,6192.0
60.2491,6439.0
60.2825,6088.0
60.3159,6289.0
60.3494,6258.0
60.3828,6175.0
60.4162,6183.0
60.4496,6284.0
60.483,6180.0
60.5165,6373.0
60.5499,6268.0
60.5833,6385.0
60.6167,6457.0
60.6502,6270.0
60.6836,6406.0
60.717,6402.0
60.7504,6574.0
60.7839,6446.0
60.8173,6700.0
60.8507,6545.0
60.8841,6554.0
60.9175,6451.0
60.951,6698.0
60.9844,6619.0
61.0178,6636.0
61.0512,6731.0
61.0847,6746.0
61.1181,6631.0
61.1515,6606.0
61.1849,6491.0
61.2183,6531.0
61.2518,6619.0
61.2852,6468.0
61.3186,6557.0
61.352,6609.0
61.3855,6565.0
61.4189,6612.0
61.4523,6430.0
61.4857,6628.0
61.5191,6808.0
61.5526,6699.0
61.586,6516.0
61.6194,6738.0
61.6528,6529.0
61.6863,6490.0
61.7197,6520.0
61.7531,6501.0
61.7865,6538.0
61.82,6561.0
61.8534,6479.0
61.8868,6431.0
61.9202,6296.0
61.9536,6420.0
61.9871,6259.0
62.0205,6349.0
62.0539,6457.0
62.0873,6315.0
62.1208,6266.0
62.1542,6317.0
62.1876,6286.0
62.221,6407.0
62.2544,6378.0
62.2879,6358.0
62.3213,6382.0
62.3547,6381.0
62.3881,6259.0
62.4216,6385.0
62.455,6345.0
62.4884,6266.0
62.5218,6285.0
62.5552,6457.0
62.5887,6340.0
62.6221,6315.0
62.6555,6352.0
62.6889,6460.0
62.7224,6320.0
62.7558,6397.0
62.7892,6363.0
62.8226,6185.0
62.856,6367.0
62.8895,6239.0
62.9229,6277.0
62.9563,6351.0
62.9897,6211.0
63.0232,6221.0
63.0566,6196.0
63.09,6201.0
63.1234,6268.0
63.1569,6269.0
63.1903,6213.0
63.2237,6357.0
63.2571,6258.0
63.2905,6270.0
63.324,6333.0
63.3574,6207.0
63.3908,6268.0
63.4242,6301.0
63.4577,6176.0
63.4911,6292.0
63.5245,6217.0
63.5579,6222.0
63.5913,6276.0
63.6248,6060.0
63.6582,6179.0
63.6916,6303.0
63.725,6249.0
63.7585,6251.0
63.7919,6254.0
63.8253,6170.0
63.8587,6123.0
63.8921,6265.0
63.9256,6227.0
63.959,6217.0
63.9924,6068.0
64.0258,6357.0
64.0593,6171.0
64.0927,6285.0
64.1261,6420.0
64.1595,6240.0
64.193,6235.0
64.2264,6175.0
64.2598,6228.0
64.2932,6249.0
64.3266,6217.0
64.3601,6134.0
64.3935,6381.0
64.4269,6182.0
64.4603,6386.0
64.4938,6192.0
64.5272,6373.0
64.5606,6317.0
64.594,6253.0
64.6274,6226.0
64.6609,6051.0
64.6943,6354.0
64.7277,6326.0
64.7611,6305.0
64.7946,6380.0
64.828,6348.0
64.8614,6345.0
64.8948,6069.0
64.9282,6240.0
64.9617,6234.0
64.9951,6295.0
65.0285,6301.0
65.0619,6258.0
65.0954,6272.0
65.1288,6160.0
65.1622,6224.0
65.1956,6276.0
65.229,6372.0
65.2625,6495.0
65.2959,6572.0
65.3293,6662.0
65.3627,6671.0
65.3962,6777.0
65.4296,6726.0
65.463,6641.0
65.4964,6604.0
65.5299,6741.0
65.5633,6756.0
65.5967,6446.0
65.6301,6563.0
65.6635,6441.0
65.697,6304.0
65.7304,6476.0
65.7638,6471.0
65.7972,6371.0
65.8307,6372.0
65.8641,6331.0
65.8975,6433.0
65.9309,6371.0
65.9643,6373.0
65.9978,6194.0
66.0312,6214.0
66.0646,6124.0
66.098,6269.0
66.1315,6392.0
66.1649,6296.0
66.1983,6148.0
66.2317,6232.0
66.2651,6329.0
66.2986,6203.0
66.332,6209.0
66.3654,6260.0
66.3988,6119.0
66.4323,6300.0
66.4657,6078.0
66.4991,6190.0
66.5325,6150.0
66.566,6232.0
66.5994,6284.0
66.6328,6145.0
66.6662,6197.0
66.6996,6198.0
66.7331,6210.0
66.7665,6179.0
66.7999,6199.0
66.8333,6227.0
66.8668,6145.0
66.9002,6188.0
66.9336,6138.0
66.967,6195.0
67.0004,6238.0
67.0339,6172.0
67.0673,6185.0
67.1007,6138.0
67.1341,6127.0
67.1676,6265.0
67.201,6253.0
67.2344,6305.0
67.2678,6085.0
67.3012,6049.0
67.3347,6261.0
67.3681,6117.0
67.4015,6199.0
67.4349,6164.0
67.4684,6210.0
67.5018,6107.0
67.5352,6250.0
67.5686,6200.0
67.602,6336.0
67.6355,6203.0
67.6689,6232.0
67.7023,6229.0
67.7357,6278.0
67.7692,6238.0
67.8026,6124.0
67.836,6184.0
67.8694,6133.0
67.9029,6152.0
67.9363,6161.0
67.9697,6223.0
68.0031,6139.0
68.0365,6229.0
68.07,6191.0
68.1034,6210.0
68.1368,6166.0
68.1702,6160.0
68.2037,5998.0
68.2371,6181.0
68.2705,6231.0
68.3039,6202.0
68.3373,6203.0
68.3708,6345.0
68.4042,6195.0
68.4376,6327.0
68.471,6237.0
68.5045,6264.0
68.5379,6153.0
68.5713,6215.0
68.6047,6294.0
68.6381,6122.0
68.6716,6118.0
68.705,6120.0
68.7384,6280.0
68.7718,6119.0
68.8053,6224.0
68.8387,6206.0
68.8721,6286.0
68.9055,6103.0
68.939,6064.0
68.9724,6250.0
69.0058,5977.0
69.0392,6086.0
69.0726,6254.0
69.1061,6170.0
69.1395,6262.0
69.1729,6229.0
69.2063,6343.0
69.2398,6288.0
69.2732,6221.0
69.3066,6336.0
69.34,6112.0
69.3734,6129.0
69.4069,6195.0
69.4403,6289.0
69.4737,6092.0
69.5071,6076.0
69.5406,6378.0
69.574,6178.0
69.6074,6246.0
69.6408,6418.0
69.6742,6233.0
69.7077,6211.0
69.7411,6349.0
69.7745,6354.0
69.8079,6368.0
69.8414,6416.0
69.8748,6499.0
69.9082,6423.0
69.9416,6516.0
69.975,6565.0
69.9918,6370.0