File: herald_visualization/XRD_Plotting/Figures/Li(FeMn)F3/250207-MnF2(LiF)-ball_milled_24h-20-70deg-40min.csv
2Theta,Intensity
20.0084,4619.0
20.0418,4669.0
20.0752,4464.0
20.1086,4597.0
20.142,4579.0
20.1755,4522.0
20.2089,4588.0
20.2423,4394.0
20.2757,4489.0
20.3092,4505.0
20.3426,4526.0
20.376,4470.0
20.4094,4483.0
20.4428,4460.0
20.4763,4663.0
20.5097,4504.0
20.5431,4452.0
20.5765,4454.0
20.61,4406.0
20.6434,4405.0
20.6768,4399.0
20.7102,4269.0
20.7437,4358.0
20.7771,4324.0
20.8105,4297.0
20.8439,4299.0
20.8773,4239.0
20.9108,4344.0
20.9442,4183.0
20.9776,4312.0
21.011,4310.0
21.0445,4218.0
21.0779,4232.0
21.1113,4174.0
21.1447,4193.0
21.1781,4167.0
21.2116,4149.0
21.245,4240.0
21.2784,4101.0
21.3118,4217.0
21.3453,4165.0
21.3787,4029.0
21.4121,4020.0
21.4455,4166.0
21.4789,4077.0
21.5124,4056.0
21.5458,4032.0
21.5792,4064.0
21.6126,4056.0
21.6461,4134.0
21.6795,4063.0
21.7129,4141.0
21.7463,3959.0
21.7798,3901.0
21.8132,3962.0
21.8466,3961.0
21.88,4030.0
21.9134,3901.0
21.9469,3962.0
21.9803,3904.0
22.0137,3909.0
22.0471,3946.0
22.0806,3858.0
22.114,3822.0
22.1474,3960.0
22.1808,3788.0
22.2142,3923.0
22.2477,3765.0
22.2811,3695.0
22.3145,3802.0
22.3479,3761.0
22.3814,3761.0
22.4148,3711.0
22.4482,3735.0
22.4816,3835.0
22.515,3713.0
22.5485,3710.0
22.5819,3824.0
22.6153,3664.0
22.6487,3813.0
22.6822,3717.0
22.7156,3672.0
22.749,3688.0
22.7824,3702.0
22.8158,3642.0
22.8493,3620.0
22.8827,3603.0
22.9161,3640.0
22.9495,3685.0
22.983,3672.0
23.0164,3564.0
23.0498,3578.0
23.0832,3679.0
23.1167,3606.0
23.1501,3667.0
23.1835,3572.0
23.2169,3617.0
23.2503,3484.0
23.2838,3546.0
23.3172,3561.0
23.3506,3556.0
23.384,3566.0
23.4175,3705.0
23.4509,3681.0
23.4843,3633.0
23.5177,3676.0
23.5511,3617.0
23.5846,3684.0
23.618,3620.0
23.6514,3718.0
23.6848,3522.0
23.7183,3593.0
23.7517,3454.0
23.7851,3434.0
23.8185,3441.0
23.8519,3495.0
23.8854,3510.0
23.9188,3436.0
23.9522,3478.0
23.9856,3512.0
24.0191,3430.0
24.0525,3401.0
24.0859,3512.0
24.1193,3438.0
24.1528,3376.0
24.1862,3473.0
24.2196,3395.0
24.253,3326.0
24.2864,3395.0
24.3199,3376.0
24.3533,3404.0
24.3867,3460.0
24.4201,3421.0
24.4536,3317.0
24.487,3394.0
24.5204,3386.0
24.5538,3355.0
24.5872,3383.0
24.6207,3450.0
24.6541,3336.0
24.6875,3396.0
24.7209,3372.0
24.7544,3364.0
24.7878,3443.0
24.8212,3492.0
24.8546,3505.0
24.888,3427.0
24.9215,3489.0
24.9549,3476.0
24.9883,3514.0
25.0217,3516.0
25.0552,3600.0
25.0886,3637.0
25.122,3642.0
25.1554,3529.0
25.1888,3697.0
25.2223,3604.0
25.2557,3656.0
25.2891,3715.0
25.3225,3744.0
25.356,3871.0
25.3894,4047.0
25.4228,4336.0
25.4562,4646.0
25.4897,4890.0
25.5231,5392.0
25.5565,5905.0
25.5899,6652.0
25.6233,7312.0
25.6568,7829.0
25.6902,7872.0
25.7236,7752.0
25.757,6832.0
25.7905,6150.0
25.8239,5485.0
25.8573,5107.0
25.8907,4608.0
25.9241,4259.0
25.9576,4188.0
25.991,3874.0
26.0244,3847.0
26.0578,3733.0
26.0913,3729.0
26.1247,3746.0
26.1581,3537.0
26.1915,3530.0
26.2249,3476.0
26.2584,3511.0
26.2918,3421.0
26.3252,3461.0
26.3586,3409.0
26.3921,3436.0
26.4255,3316.0
26.4589,3341.0
26.4923,3365.0
26.5258,3389.0
26.5592,3417.0
26.5926,3386.0
26.626,3362.0
26.6594,3352.0
26.6929,3371.0
26.7263,3277.0
26.7597,3425.0
26.7931,3193.0
26.8266,3271.0
26.86,3395.0
26.8934,3367.0
26.9268,3215.0
26.9602,3253.0
26.9937,3286.0
27.0271,3337.0
27.0605,3239.0
27.0939,3219.0
27.1274,3354.0
27.1608,3175.0
27.1942,3328.0
27.2276,3246.0
27.261,3167.0
27.2945,3248.0
27.3279,3221.0
27.3613,3277.0
27.3947,3276.0
27.4282,3129.0
27.4616,3163.0
27.495,3229.0
27.5284,3270.0
27.5618,3162.0
27.5953,3210.0
27.6287,3296.0
27.6621,3115.0
27.6955,3174.0
27.729,3190.0
27.7624,3077.0
27.7958,3215.0
27.8292,3162.0
27.8627,3151.0
27.8961,3234.0
27.9295,3170.0
27.9629,3131.0
27.9963,3169.0
28.0298,3120.0
28.0632,3113.0
28.0966,3090.0
28.13,3189.0
28.1635,3138.0
28.1969,3247.0
28.2303,3068.0
28.2637,3080.0
28.2971,3240.0
28.3306,3209.0
28.364,3105.0
28.3974,3230.0
28.4308,3155.0
28.4643,3082.0
28.4977,3102.0
28.5311,3185.0
28.5645,3112.0
28.5979,3167.0
28.6314,3070.0
28.6648,3137.0
28.6982,3197.0
28.7316,3194.0
28.7651,3234.0
28.7985,3098.0
28.8319,3107.0
28.8653,3201.0
28.8988,3049.0
28.9322,3277.0
28.9656,3130.0
28.999,3202.0
29.0324,3109.0
29.0659,3109.0
29.0993,3174.0
29.1327,3144.0
29.1661,3038.0
29.1996,3070.0
29.233,3101.0
29.2664,2990.0
29.2998,3009.0
29.3332,3052.0
29.3667,3051.0
29.4001,3130.0
29.4335,3006.0
29.4669,2956.0
29.5004,3134.0
29.5338,3071.0
29.5672,3062.0
29.6006,3015.0
29.634,3065.0
29.6675,3015.0
29.7009,3035.0
29.7343,2976.0
29.7677,3035.0
29.8012,2915.0
29.8346,3017.0
29.868,2994.0
29.9014,2985.0
29.9348,2917.0
29.9683,2955.0
30.0017,2958.0
30.0351,2974.0
30.0685,3053.0
30.102,2980.0
30.1354,2849.0
30.1688,2933.0
30.2022,3033.0
30.2357,2989.0
30.2691,3043.0
30.3025,2867.0
30.3359,2853.0
30.3693,2945.0
30.4028,3018.0
30.4362,2998.0
30.4696,3028.0
30.503,2895.0
30.5365,2991.0
30.5699,2944.0
30.6033,2963.0
30.6367,2814.0
30.6701,2831.0
30.7036,2948.0
30.737,2917.0
30.7704,2878.0
30.8038,2961.0
30.8373,2909.0
30.8707,2957.0
30.9041,2856.0
30.9375,2845.0
30.9709,2823.0
31.0044,2989.0
31.0378,2803.0
31.0712,2911.0
31.1046,2877.0
31.1381,2919.0
31.1715,2936.0
31.2049,2935.0
31.2383,2924.0
31.2718,2947.0
31.3052,2857.0
31.3386,2940.0
31.372,2869.0
31.4054,2922.0
31.4389,3025.0
31.4723,2962.0
31.5057,2887.0
31.5391,2858.0
31.5726,2997.0
31.606,2929.0
31.6394,2986.0
31.6728,2931.0
31.7062,2962.0
31.7397,2878.0
31.7731,2959.0
31.8065,3005.0
31.8399,3004.0
31.8734,3052.0
31.9068,2977.0
31.9402,2955.0
31.9736,2955.0
32.007,3045.0
32.0405,3190.0
32.0739,3182.0
32.1073,3144.0
32.1407,3034.0
32.1742,3184.0
32.2076,3235.0
32.241,3419.0
32.2744,3610.0
32.3078,3580.0
32.3413,3810.0
32.3747,4118.0
32.4081,4556.0
32.4415,4644.0
32.475,5071.0
32.5084,5328.0
32.5418,5282.0
32.5752,5144.0
32.6087,5137.0
32.6421,4700.0
32.6755,4286.0
32.7089,4078.0
32.7423,3755.0
32.7758,3470.0
32.8092,3397.0
32.8426,3308.0
32.876,3182.0
32.9095,3101.0
32.9429,3194.0
32.9763,3172.0
33.0097,3025.0
33.0431,3115.0
33.0766,2974.0
33.11,3018.0
33.1434,3019.0
33.1768,3040.0
33.2103,3042.0
33.2437,2806.0
33.2771,2946.0
33.3105,3021.0
33.3439,2923.0
33.3774,2869.0
33.4108,2883.0
33.4442,2858.0
33.4776,2889.0
33.5111,2767.0
33.5445,2910.0
33.5779,2800.0
33.6113,2872.0
33.6448,2931.0
33.6782,2808.0
33.7116,2746.0
33.745,2761.0
33.7784,2817.0
33.8119,2757.0
33.8453,2767.0
33.8787,2760.0
33.9121,2831.0
33.9456,2807.0
33.979,2768.0
34.0124,2863.0
34.0458,2671.0
34.0792,2711.0
34.1127,2729.0
34.1461,2771.0
34.1795,2668.0
34.2129,2781.0
34.2464,2763.0
34.2798,2720.0
34.3132,2767.0
34.3466,2743.0
34.38,2674.0
34.4135,2793.0
34.4469,2681.0
34.4803,2744.0
34.5137,2699.0
34.5472,2694.0
34.5806,2728.0
34.614,2871.0
34.6474,2836.0
34.6808,2763.0
34.7143,2742.0
34.7477,2714.0
34.7811,2677.0
34.8145,2671.0
34.848,2625.0
34.8814,2756.0
34.9148,2755.0
34.9482,2704.0
34.9817,2726.0
35.0151,2758.0
35.0485,2712.0
35.0819,2685.0
35.1153,2706.0
35.1488,2698.0
35.1822,2786.0
35.2156,2658.0
35.249,2667.0
35.2825,2687.0
35.3159,2679.0
35.3493,2743.0
35.3827,2678.0
35.4161,2742.0
35.4496,2658.0
35.483,2727.0
35.5164,2641.0
35.5498,2676.0
35.5833,2727.0
35.6167,2744.0
35.6501,2631.0
35.6835,2620.0
35.7169,2745.0
35.7504,2761.0
35.7838,2807.0
35.8172,2647.0
35.8506,2659.0
35.8841,2702.0
35.9175,2714.0
35.9509,2720.0
35.9843,2587.0
36.0178,2709.0
36.0512,2769.0
36.0846,2691.0
36.118,2719.0
36.1514,2669.0
36.1849,2673.0
36.2183,2778.0
36.2517,2784.0
36.2851,2804.0
36.3186,2823.0
36.352,2721.0
36.3854,2818.0
36.4188,2841.0
36.4522,2842.0
36.4857,2696.0
36.5191,2895.0
36.5525,2803.0
36.5859,2909.0
36.6194,2952.0
36.6528,2931.0
36.6862,3030.0
36.7196,3058.0
36.753,2954.0
36.7865,3006.0
36.8199,2969.0
36.8533,2844.0
36.8867,2807.0
36.9202,2789.0
36.9536,2836.0
36.987,2707.0
37.0204,2841.0
37.0538,2857.0
37.0873,2876.0
37.1207,2849.0
37.1541,2864.0
37.1875,2856.0
37.221,2956.0
37.2544,2992.0
37.2878,3138.0
37.3212,3242.0
37.3547,3281.0
37.3881,3611.0
37.4215,3870.0
37.4549,3909.0
37.4883,4159.0
37.5218,4009.0
37.5552,4055.0
37.5886,3831.0
37.622,3752.0
37.6555,3695.0
37.6889,3347.0
37.7223,3221.0
37.7557,3104.0
37.7891,3057.0
37.8226,2880.0
37.856,2884.0
37.8894,2942.0
37.9228,2950.0
37.9563,2897.0
37.9897,2786.0
38.0231,2883.0
38.0565,2917.0
38.0899,2740.0
38.1234,2713.0
38.1568,2813.0
38.1902,2905.0
38.2236,2794.0
38.2571,2756.0
38.2905,2812.0
38.3239,2793.0
38.3573,2908.0
38.3908,3032.0
38.4242,3231.0
38.4576,3671.0
38.491,3882.0
38.5244,4018.0
38.5579,4645.0
38.5913,4027.0
38.6247,3866.0
38.6581,3655.0
38.6916,3368.0
38.725,3090.0
38.7584,2883.0
38.7918,2742.0
38.8252,2804.0
38.8587,2722.0
38.8921,2800.0
38.9255,2665.0
38.9589,2724.0
38.9924,2734.0
39.0258,2702.0
39.0592,2660.0
39.0926,2610.0
39.126,2645.0
39.1595,2759.0
39.1929,2688.0
39.2263,2719.0
39.2597,2743.0
39.2932,2722.0
39.3266,2650.0
39.36,2597.0
39.3934,2594.0
39.4269,2747.0
39.4603,2641.0
39.4937,2683.0
39.5271,2677.0
39.5605,2630.0
39.594,2625.0
39.6274,2690.0
39.6608,2627.0
39.6942,2540.0
39.7277,2664.0
39.7611,2716.0
39.7945,2616.0
39.8279,2561.0
39.8613,2647.0
39.8948,2760.0
39.9282,2618.0
39.9616,2609.0
39.995,2668.0
40.0285,2684.0
40.0619,2758.0
40.0953,2660.0
40.1287,2630.0
40.1621,2615.0
40.1956,2568.0
40.229,2580.0
40.2624,2673.0
40.2958,2617.0
40.3293,2753.0
40.3627,2646.0
40.3961,2664.0
40.4295,2609.0
40.4629,2565.0
40.4964,2636.0
40.5298,2614.0
40.5632,2684.0
40.5966,2715.0
40.6301,2648.0
40.6635,2640.0
40.6969,2559.0
40.7303,2775.0
40.7638,2636.0
40.7972,2640.0
40.8306,2702.0
40.864,2690.0
40.8974,2750.0
40.9309,2587.0
40.9643,2698.0
40.9977,2748.0
41.0311,2820.0
41.0646,2763.0
41.098,2740.0
41.1314,2887.0
41.1648,2997.0
41.1982,2978.0
41.2317,2965.0
41.2651,3128.0
41.2985,2971.0
41.3319,2829.0
41.3654,2900.0
41.3988,2815.0
41.4322,2781.0
41.4656,2769.0
41.499,2748.0
41.5325,2779.0
41.5659,2693.0
41.5993,2633.0
41.6327,2574.0
41.6662,2697.0
41.6996,2644.0
41.733,2628.0
41.7664,2657.0
41.7999,2628.0
41.8333,2583.0
41.8667,2627.0
41.9001,2584.0
41.9335,2695.0
41.967,2603.0
42.0004,2585.0
42.0338,2547.0
42.0672,2519.0
42.1007,2664.0
42.1341,2580.0
42.1675,2603.0
42.2009,2570.0
42.2343,2608.0
42.2678,2669.0
42.3012,2565.0
42.3346,2579.0
42.368,2548.0
42.4015,2600.0
42.4349,2611.0
42.4683,2569.0
42.5017,2653.0
42.5351,2629.0
42.5686,2558.0
42.602,2538.0
42.6354,2530.0
42.6688,2586.0
42.7023,2618.0
42.7357,2567.0
42.7691,2644.0
42.8025,2512.0
42.8359,2567.0
42.8694,2615.0
42.9028,2540.0
42.9362,2590.0
42.9696,2568.0
43.0031,2480.0
43.0365,2525.0
43.0699,2618.0
43.1033,2646.0
43.1368,2552.0
43.1702,2539.0
43.2036,2534.0
43.237,2624.0
43.2704,2648.0
43.3039,2572.0
43.3373,2635.0
43.3707,2641.0
43.4041,2706.0
43.4376,2690.0
43.471,2689.0
43.5044,2598.0
43.5378,2738.0
43.5712,2712.0
43.6047,2719.0
43.6381,2681.0
43.6715,2612.0
43.7049,2726.0
43.7384,2594.0
43.7718,2599.0
43.8052,2595.0
43.8386,2638.0
43.872,2521.0
43.9055,2663.0
43.9389,2568.0
43.9723,2641.0
44.0057,2678.0
44.0392,2611.0
44.0726,2616.0
44.106,2616.0
44.1394,2671.0
44.1729,2697.0
44.2063,2602.0
44.2397,2587.0
44.2731,2653.0
44.3065,2647.0
44.34,2582.0
44.3734,2596.0
44.4068,2734.0
44.4402,2599.0
44.4737,2671.0
44.5071,2662.0
44.5405,2760.0
44.5739,2818.0
44.6073,2858.0
44.6408,2971.0
44.6742,3104.0
44.7076,3276.0
44.741,3796.0
44.7745,4914.0
44.8079,7309.0
44.8413,6563.0
44.8747,5097.0
44.9081,5701.0
44.9416,5943.0
44.975,4409.0
45.0084,3700.0
45.0418,3446.0
45.0753,3072.0
45.1087,2957.0
45.1421,2852.0
45.1755,2774.0
45.2089,2750.0
45.2424,2642.0
45.2758,2632.0
45.3092,2673.0
45.3426,2574.0
45.3761,2574.0
45.4095,2649.0
45.4429,2630.0
45.4763,2577.0
45.5098,2528.0
45.5432,2622.0
45.5766,2594.0
45.61,2449.0
45.6434,2578.0
45.6769,2541.0
45.7103,2528.0
45.7437,2531.0
45.7771,2589.0
45.8106,2555.0
45.844,2507.0
45.8774,2496.0
45.9108,2551.0
45.9442,2683.0
45.9777,2617.0
46.0111,2565.0
46.0445,2488.0
46.0779,2553.0
46.1114,2531.0
46.1448,2616.0
46.1782,2566.0
46.2116,2542.0
46.245,2579.0
46.2785,2494.0
46.3119,2561.0
46.3453,2490.0
46.3787,2565.0
46.4122,2512.0
46.4456,2627.0
46.479,2483.0
46.5124,2624.0
46.5459,2538.0
46.5793,2631.0
46.6127,2530.0
46.6461,2610.0
46.6795,2562.0
46.713,2598.0
46.7464,2501.0
46.7798,2559.0
46.8132,2524.0
46.8467,2465.0
46.8801,2452.0
46.9135,2561.0
46.9469,2588.0
46.9803,2474.0
47.0138,2521.0
47.0472,2539.0
47.0806,2588.0
47.114,2616.0
47.1475,2655.0
47.1809,2627.0
47.2143,2565.0
47.2477,2603.0
47.2811,2510.0
47.3146,2565.0
47.348,2512.0
47.3814,2652.0
47.4148,2494.0
47.4483,2501.0
47.4817,2546.0
47.5151,2495.0
47.5485,2594.0
47.5819,2602.0
47.6154,2541.0
47.6488,2588.0
47.6822,2615.0
47.7156,2684.0
47.7491,2567.0
47.7825,2592.0
47.8159,2561.0
47.8493,2587.0
47.8828,2556.0
47.9162,2649.0
47.9496,2598.0
47.983,2663.0
48.0164,2705.0
48.0499,2550.0
48.0833,2575.0
48.1167,2726.0
48.1501,2729.0
48.1836,2590.0
48.217,2640.0
48.2504,2569.0
48.2838,2581.0
48.3172,2635.0
48.3507,2668.0
48.3841,2681.0
48.4175,2702.0
48.4509,2622.0
48.4844,2643.0
48.5178,2618.0
48.5512,2666.0
48.5846,2668.0
48.618,2641.0
48.6515,2659.0
48.6849,2768.0
48.7183,2716.0
48.7517,2721.0
48.7852,2693.0
48.8186,2735.0
48.852,2634.0
48.8854,2728.0
48.9189,2720.0
48.9523,2718.0
48.9857,2742.0
49.0191,2754.0
49.0525,2677.0
49.086,2743.0
49.1194,2800.0
49.1528,2818.0
49.1862,2812.0
49.2197,2791.0
49.2531,2858.0
49.2865,2983.0
49.3199,2945.0
49.3533,2880.0
49.3868,3051.0
49.4202,2987.0
49.4536,3074.0
49.487,3044.0
49.5205,3168.0
49.5539,3230.0
49.5873,3338.0
49.6207,3547.0
49.6541,3651.0
49.6876,3945.0
49.721,4055.0
49.7544,4416.0
49.7878,4883.0
49.8213,5099.0
49.8547,5575.0
49.8881,5783.0
49.9215,5930.0
49.9549,6139.0
49.9884,6008.0
50.0218,5662.0
50.0552,5548.0
50.0886,5123.0
50.1221,4798.0
50.1555,4369.0
50.1889,4098.0
50.2223,3929.0
50.2558,3808.0
50.2892,3562.0
50.3226,3441.0
50.356,3316.0
50.3894,3210.0
50.4229,3158.0
50.4563,3112.0
50.4897,3102.0
50.5231,2969.0
50.5566,3019.0
50.59,3061.0
50.6234,2939.0
50.6568,3009.0
50.6902,2969.0
50.7237,2886.0
50.7571,2868.0
50.7905,2814.0
50.8239,2866.0
50.8574,2908.0
50.8908,2894.0
50.9242,2792.0
50.9576,2795.0
50.991,2728.0
51.0245,2840.0
51.0579,2854.0
51.0913,2830.0
51.1247,2801.0
51.1582,2748.0
51.1916,2750.0
51.225,2773.0
51.2584,2652.0
51.2919,2742.0
51.3253,2758.0
51.3587,2755.0
51.3921,2672.0
51.4255,2803.0
51.459,2734.0
51.4924,2739.0
51.5258,2727.0
51.5592,2648.0
51.5927,2679.0
51.6261,2739.0
51.6595,2727.0
51.6929,2680.0
51.7263,2711.0
51.7598,2757.0
51.7932,2682.0
51.8266,2693.0
51.86,2728.0
51.8935,2751.0
51.9269,2647.0
51.9603,2682.0
51.9937,2738.0
52.0271,2614.0
52.0606,2704.0
52.094,2738.0
52.1274,2735.0
52.1608,2709.0
52.1943,2711.0
52.2277,2745.0
52.2611,2738.0
52.2945,2744.0
52.3279,2741.0
52.3614,2798.0
52.3948,2782.0
52.4282,2765.0
52.4616,2694.0
52.4951,2757.0
52.5285,2830.0
52.5619,2760.0
52.5953,2766.0
52.6288,2846.0
52.6622,2873.0
52.6956,2914.0
52.729,2966.0
52.7624,3136.0
52.7959,3058.0
52.8293,3255.0
52.8627,3386.0
52.8961,3448.0
52.9296,3589.0
52.963,3552.0
52.9964,3654.0
53.0298,3567.0
53.0632,3430.0
53.0967,3541.0
53.1301,3168.0
53.1635,3182.0
53.1969,3013.0
53.2304,2887.0
53.2638,2852.0
53.2972,2885.0
53.3306,2829.0
53.364,2738.0
53.3975,2751.0
53.4309,2711.0
53.4643,2789.0
53.4977,2666.0
53.5312,2738.0
53.5646,2657.0
53.598,2697.0
53.6314,2596.0
53.6649,2646.0
53.6983,2548.0
53.7317,2741.0
53.7651,2674.0
53.7985,2659.0
53.832,2627.0
53.8654,2582.0
53.8988,2581.0
53.9322,2642.0
53.9657,2664.0
53.9991,2624.0
54.0325,2649.0
54.0659,2642.0
54.0993,2590.0
54.1328,2616.0
54.1662,2665.0
54.1996,2689.0
54.233,2658.0
54.2665,2644.0
54.2999,2600.0
54.3333,2573.0
54.3667,2694.0
54.4001,2522.0
54.4336,2672.0
54.467,2580.0
54.5004,2683.0
54.5338,2533.0
54.5673,2736.0
54.6007,2694.0
54.6341,2585.0
54.6675,2659.0
54.701,2598.0
54.7344,2651.0
54.7678,2580.0
54.8012,2698.0
54.8346,2697.0
54.8681,2678.0
54.9015,2661.0
54.9349,2820.0
54.9683,2665.0
55.0018,2631.0
55.0352,2744.0
55.0686,2792.0
55.102,2775.0
55.1354,2817.0
55.1689,2873.0
55.2023,3048.0
55.2357,2948.0
55.2691,3051.0
55.3026,3104.0
55.336,3136.0
55.3694,3083.0
55.4028,3119.0
55.4362,3183.0
55.4697,3194.0
55.5031,2945.0
55.5365,3061.0
55.5699,2880.0
55.6034,2828.0
55.6368,2753.0
55.6702,2768.0
55.7036,2745.0
55.737,2756.0
55.7705,2713.0
55.8039,2652.0
55.8373,2691.0
55.8707,2691.0
55.9042,2665.0
55.9376,2663.0
55.971,2789.0
56.0044,2720.0
56.0379,2624.0
56.0713,2562.0
56.1047,2549.0
56.1381,2704.0
56.1715,2569.0
56.205,2606.0
56.2384,2590.0
56.2718,2605.0
56.3052,2643.0
56.3387,2652.0
56.3721,2613.0
56.4055,2616.0
56.4389,2632.0
56.4723,2681.0
56.5058,2586.0
56.5392,2657.0
56.5726,2707.0
56.606,2568.0
56.6395,2615.0
56.6729,2525.0
56.7063,2598.0
56.7397,2642.0
56.7731,2648.0
56.8066,2636.0
56.84,2501.0
56.8734,2612.0
56.9068,2657.0
56.9403,2602.0
56.9737,2631.0
57.0071,2621.0
57.0405,2600.0
57.074,2527.0
57.1074,2621.0
57.1408,2694.0
57.1742,2587.0
57.2076,2693.0
57.2411,2536.0
57.2745,2650.0
57.3079,2541.0
57.3413,2642.0
57.3748,2508.0
57.4082,2665.0
57.4416,2562.0
57.475,2633.0
57.5084,2643.0
57.5419,2742.0
57.5753,2629.0
57.6087,2661.0
57.6421,2641.0
57.6756,2678.0
57.709,2632.0
57.7424,2580.0
57.7758,2609.0
57.8092,2634.0
57.8427,2618.0
57.8761,2663.0
57.9095,2594.0
57.9429,2578.0
57.9764,2622.0
58.0098,2581.0
58.0432,2602.0
58.0766,2680.0
58.11,2563.0
58.1435,2644.0
58.1769,2721.0
58.2103,2562.0
58.2437,2600.0
58.2772,2534.0
58.3106,2688.0
58.344,2671.0
58.3774,2604.0
58.4109,2611.0
58.4443,2629.0
58.4777,2683.0
58.5111,2612.0
58.5445,2742.0
58.578,2598.0
58.6114,2652.0
58.6448,2631.0
58.6782,2658.0
58.7117,2624.0
58.7451,2626.0
58.7785,2598.0
58.8119,2659.0
58.8453,2725.0
58.8788,2540.0
58.9122,2598.0
58.9456,2562.0
58.979,2600.0
59.0125,2694.0
59.0459,2627.0
59.0793,2645.0
59.1127,2679.0
59.1461,2635.0
59.1796,2710.0
59.213,2614.0
59.2464,2716.0
59.2798,2732.0
59.3133,2778.0
59.3467,2609.0
59.3801,2693.0
59.4135,2689.0
59.447,2692.0
59.4804,2711.0
59.5138,2794.0
59.5472,2690.0
59.5806,2912.0
59.6141,2823.0
59.6475,2840.0
59.6809,2882.0
59.7143,2951.0
59.7478,3012.0
59.7812,2961.0
59.8146,3046.0
59.848,3008.0
59.8814,3044.0
59.9149,2944.0
59.9483,2946.0
59.9817,3101.0
60.0151,2989.0
60.0486,2928.0
60.082,2867.0
60.1154,2889.0
60.1488,2855.0
60.1822,2812.0
60.2157,2774.0
60.2491,2798.0
60.2825,2721.0
60.3159,2856.0
60.3494,2742.0
60.3828,2765.0
60.4162,2824.0
60.4496,2632.0
60.483,2706.0
60.5165,2707.0
60.5499,2744.0
60.5833,2750.0
60.6167,2744.0
60.6502,2770.0
60.6836,2632.0
60.717,2762.0
60.7504,2616.0
60.7839,2712.0
60.8173,2663.0
60.8507,2759.0
60.8841,2710.0
60.9175,2745.0
60.951,2728.0
60.9844,2765.0
61.0178,2575.0
61.0512,2739.0
61.0847,2704.0
61.1181,2741.0
61.1515,2727.0
61.1849,2699.0
61.2183,2702.0
61.2518,2663.0
61.2852,2762.0
61.3186,2615.0
61.352,2833.0
61.3855,2739.0
61.4189,2722.0
61.4523,2814.0
61.4857,2688.0
61.5191,2760.0
61.5526,2790.0
61.586,2797.0
61.6194,2835.0
61.6528,2713.0
61.6863,2878.0
61.7197,2867.0
61.7531,2903.0
61.7865,2864.0
61.82,2842.0
61.8534,3013.0
61.8868,2946.0
61.9202,3137.0
61.9536,3201.0
61.9871,3190.0
62.0205,3241.0
62.0539,3284.0
62.0873,3244.0
62.1208,3201.0
62.1542,3082.0
62.1876,3184.0
62.221,3080.0
62.2544,3074.0
62.2879,2991.0
62.3213,3028.0
62.3547,2950.0
62.3881,2911.0
62.4216,2794.0
62.455,2726.0
62.4884,2870.0
62.5218,2846.0
62.5552,2722.0
62.5887,2770.0
62.6221,2810.0
62.6555,2825.0
62.6889,2724.0
62.7224,2655.0
62.7558,2772.0
62.7892,2746.0
62.8226,2756.0
62.856,2762.0
62.8895,2802.0
62.9229,2793.0
62.9563,2720.0
62.9897,2851.0
63.0232,2757.0
63.0566,2895.0
63.09,2775.0
63.1234,2878.0
63.1569,2802.0
63.1903,2923.0
63.2237,2927.0
63.2571,2887.0
63.2905,2887.0
63.324,3023.0
63.3574,3011.0
63.3908,3086.0
63.4242,3065.0
63.4577,3155.0
63.4911,3383.0
63.5245,3289.0
63.5579,3500.0
63.5913,3483.0
63.6248,3409.0
63.6582,3447.0
63.6916,3452.0
63.725,3504.0
63.7585,3282.0
63.7919,3277.0
63.8253,3244.0
63.8587,3239.0
63.8921,3093.0
63.9256,3131.0
63.959,2990.0
63.9924,2966.0
64.0258,2903.0
64.0593,2821.0
64.0927,2880.0
64.1261,2786.0
64.1595,2826.0
64.193,2741.0
64.2264,2791.0
64.2598,2772.0
64.2932,2706.0
64.3266,2795.0
64.3601,2680.0
64.3935,2678.0
64.4269,2665.0
64.4603,2657.0
64.4938,2738.0
64.5272,2693.0
64.5606,2643.0
64.594,2689.0
64.6274,2687.0
64.6609,2661.0
64.6943,2697.0
64.7277,2742.0
64.7611,2681.0
64.7946,2703.0
64.828,2653.0
64.8614,2691.0
64.8948,2664.0
64.9282,2679.0
64.9617,2628.0
64.9951,2716.0
65.0285,2650.0
65.0619,2650.0
65.0954,2705.0
65.1288,2709.0
65.1622,2766.0
65.1956,2646.0
65.229,2817.0
65.2625,2806.0
65.2959,2983.0
65.3293,3132.0
65.3627,3249.0
65.3962,3252.0
65.4296,2918.0
65.463,3027.0
65.4964,3023.0
65.5299,2997.0
65.5633,2958.0
65.5967,2821.0
65.6301,2771.0
65.6635,2800.0
65.697,2633.0
65.7304,2729.0
65.7638,2657.0
65.7972,2594.0
65.8307,2697.0
65.8641,2651.0
65.8975,2592.0
65.9309,2541.0
65.9643,2514.0
65.9978,2770.0
66.0312,2695.0
66.0646,2785.0
66.098,2621.0
66.1315,2573.0
66.1649,2714.0
66.1983,2564.0
66.2317,2648.0
66.2651,2559.0
66.2986,2645.0
66.332,2643.0
66.3654,2637.0
66.3988,2659.0
66.4323,2600.0
66.4657,2768.0
66.4991,2582.0
66.5325,2710.0
66.566,2705.0
66.5994,2582.0
66.6328,2616.0
66.6662,2615.0
66.6996,2614.0
66.7331,2550.0
66.7665,2721.0
66.7999,2636.0
66.8333,2580.0
66.8668,2650.0
66.9002,2673.0
66.9336,2632.0
66.967,2603.0
67.0004,2641.0
67.0339,2545.0
67.0673,2613.0
67.1007,2631.0
67.1341,2743.0
67.1676,2634.0
67.201,2646.0
67.2344,2620.0
67.2678,2694.0
67.3012,2616.0
67.3347,2562.0
67.3681,2632.0
67.4015,2554.0
67.4349,2644.0
67.4684,2671.0
67.5018,2695.0
67.5352,2569.0
67.5686,2729.0
67.602,2546.0
67.6355,2679.0
67.6689,2655.0
67.7023,2655.0
67.7357,2667.0
67.7692,2638.0
67.8026,2580.0
67.836,2553.0
67.8694,2611.0
67.9029,2659.0
67.9363,2597.0
67.9697,2665.0
68.0031,2620.0
68.0365,2530.0
68.07,2692.0
68.1034,2664.0
68.1368,2722.0
68.1702,2586.0
68.2037,2750.0
68.2371,2642.0
68.2705,2693.0
68.3039,2658.0
68.3373,2646.0
68.3708,2615.0
68.4042,2683.0
68.4376,2680.0
68.471,2650.0
68.5045,2648.0
68.5379,2619.0
68.5713,2598.0
68.6047,2658.0
68.6381,2603.0
68.6716,2672.0
68.705,2628.0
68.7384,2628.0
68.7718,2622.0
68.8053,2518.0
68.8387,2578.0
68.8721,2621.0
68.9055,2601.0
68.939,2666.0
68.9724,2646.0
69.0058,2618.0
69.0392,2517.0
69.0726,2555.0
69.1061,2635.0
69.1395,2582.0
69.1729,2683.0
69.2063,2662.0
69.2398,2574.0
69.2732,2556.0
69.3066,2531.0
69.34,2672.0
69.3734,2659.0
69.4069,2659.0
69.4403,2608.0
69.4737,2579.0
69.5071,2574.0
69.5406,2570.0
69.574,2567.0
69.6074,2614.0
69.6408,2539.0
69.6742,2603.0
69.7077,2600.0
69.7411,2632.0
69.7745,2625.0
69.8079,2665.0
69.8414,2610.0
69.8748,2519.0
69.9082,2556.0
69.9416,2496.0
69.975,2675.0
69.9918,2542.0