File: herald_visualization/XRD_Plotting/Figures/Li(FeMn)F3/250207-Fe0p75Mn0p25F2(LiF)-ball_milled_24h-20-70deg-40min.csv
2Theta,Intensity
20.0084,6584.0
20.0418,6471.0
20.0752,6347.0
20.1086,6506.0
20.142,6444.0
20.1755,6382.0
20.2089,6370.0
20.2423,6275.0
20.2757,6312.0
20.3092,6452.0
20.3426,6486.0
20.376,6375.0
20.4094,6317.0
20.4428,6388.0
20.4763,6281.0
20.5097,6351.0
20.5431,6238.0
20.5765,6212.0
20.61,6162.0
20.6434,6228.0
20.6768,6436.0
20.7102,6229.0
20.7437,6368.0
20.7771,6338.0
20.8105,6275.0
20.8439,6057.0
20.8773,6194.0
20.9108,6033.0
20.9442,6313.0
20.9776,6263.0
21.011,6292.0
21.0445,6186.0
21.0779,6070.0
21.1113,5834.0
21.1447,5938.0
21.1781,5982.0
21.2116,6023.0
21.245,6115.0
21.2784,6050.0
21.3118,6066.0
21.3453,6121.0
21.3787,6036.0
21.4121,5983.0
21.4455,6080.0
21.4789,6015.0
21.5124,5853.0
21.5458,5918.0
21.5792,5992.0
21.6126,5810.0
21.6461,5885.0
21.6795,5903.0
21.7129,5797.0
21.7463,5979.0
21.7798,5978.0
21.8132,5828.0
21.8466,5921.0
21.88,5883.0
21.9134,5790.0
21.9469,5738.0
21.9803,5962.0
22.0137,5722.0
22.0471,5777.0
22.0806,5768.0
22.114,5763.0
22.1474,5840.0
22.1808,5673.0
22.2142,5772.0
22.2477,5792.0
22.2811,5726.0
22.3145,5672.0
22.3479,5714.0
22.3814,5694.0
22.4148,5580.0
22.4482,5590.0
22.4816,5707.0
22.515,5609.0
22.5485,5684.0
22.5819,5595.0
22.6153,5652.0
22.6487,5369.0
22.6822,5562.0
22.7156,5579.0
22.749,5665.0
22.7824,5754.0
22.8158,5506.0
22.8493,5553.0
22.8827,5564.0
22.9161,5475.0
22.9495,5755.0
22.983,5469.0
23.0164,5714.0
23.0498,5612.0
23.0832,5795.0
23.1167,5830.0
23.1501,5695.0
23.1835,5717.0
23.2169,5754.0
23.2503,5854.0
23.2838,5837.0
23.3172,5900.0
23.3506,6114.0
23.384,6034.0
23.4175,6356.0
23.4509,6347.0
23.4843,6443.0
23.5177,6719.0
23.5511,7128.0
23.5846,7679.0
23.618,8495.0
23.6514,9633.0
23.6848,11332.0
23.7183,12831.0
23.7517,14190.0
23.7851,14646.0
23.8185,14532.0
23.8519,13284.0
23.8854,10953.0
23.9188,8930.0
23.9522,7629.0
23.9856,6851.0
24.0191,6387.0
24.0525,6078.0
24.0859,6005.0
24.1193,5795.0
24.1528,5600.0
24.1862,5603.0
24.2196,5626.0
24.253,5555.0
24.2864,5635.0
24.3199,5440.0
24.3533,5487.0
24.3867,5448.0
24.4201,5457.0
24.4536,5351.0
24.487,5302.0
24.5204,5438.0
24.5538,5306.0
24.5872,5365.0
24.6207,5362.0
24.6541,5308.0
24.6875,5248.0
24.7209,5365.0
24.7544,5456.0
24.7878,5360.0
24.8212,5308.0
24.8546,5318.0
24.888,5076.0
24.9215,5289.0
24.9549,5310.0
24.9883,5255.0
25.0217,5352.0
25.0552,5196.0
25.0886,5276.0
25.122,5377.0
25.1554,5406.0
25.1888,5268.0
25.2223,5475.0
25.2557,5266.0
25.2891,5457.0
25.3225,5324.0
25.356,5381.0
25.3894,5483.0
25.4228,5326.0
25.4562,5445.0
25.4897,5380.0
25.5231,5494.0
25.5565,5436.0
25.5899,5446.0
25.6233,5605.0
25.6568,5626.0
25.6902,5837.0
25.7236,5743.0
25.757,5955.0
25.7905,5954.0
25.8239,6025.0
25.8573,6067.0
25.8907,5981.0
25.9241,5941.0
25.9576,5617.0
25.991,5515.0
26.0244,5596.0
26.0578,5542.0
26.0913,5474.0
26.1247,5642.0
26.1581,5456.0
26.1915,5324.0
26.2249,5511.0
26.2584,5458.0
26.2918,5374.0
26.3252,5358.0
26.3586,5421.0
26.3921,5385.0
26.4255,5487.0
26.4589,5216.0
26.4923,5334.0
26.5258,5289.0
26.5592,5266.0
26.5926,5364.0
26.626,5383.0
26.6594,5722.0
26.6929,5671.0
26.7263,5728.0
26.7597,5794.0
26.7931,5850.0
26.8266,5940.0
26.86,5663.0
26.8934,5571.0
26.9268,5575.0
26.9602,5402.0
26.9937,5408.0
27.0271,5445.0
27.0605,5478.0
27.0939,5524.0
27.1274,5318.0
27.1608,5617.0
27.1942,5597.0
27.2276,5543.0
27.261,5607.0
27.2945,5625.0
27.3279,5468.0
27.3613,5486.0
27.3947,5610.0
27.4282,5761.0
27.4616,5518.0
27.495,5543.0
27.5284,5527.0
27.5618,5151.0
27.5953,5486.0
27.6287,5283.0
27.6621,5362.0
27.6955,5212.0
27.729,5290.0
27.7624,5154.0
27.7958,5236.0
27.8292,5197.0
27.8627,5060.0
27.8961,5062.0
27.9295,5197.0
27.9629,5153.0
27.9963,5159.0
28.0298,5120.0
28.0632,5130.0
28.0966,5142.0
28.13,5235.0
28.1635,5180.0
28.1969,5140.0
28.2303,5173.0
28.2637,5102.0
28.2971,5144.0
28.3306,5163.0
28.364,5148.0
28.3974,5328.0
28.4308,5283.0
28.4643,5159.0
28.4977,5092.0
28.5311,5247.0
28.5645,5113.0
28.5979,5159.0
28.6314,4962.0
28.6648,5139.0
28.6982,5203.0
28.7316,5186.0
28.7651,5155.0
28.7985,5138.0
28.8319,5117.0
28.8653,5156.0
28.8988,5120.0
28.9322,5158.0
28.9656,5050.0
28.999,5165.0
29.0324,5013.0
29.0659,5216.0
29.0993,4999.0
29.1327,5005.0
29.1661,5178.0
29.1996,5130.0
29.233,5099.0
29.2664,5004.0
29.2998,5204.0
29.3332,5077.0
29.3667,5139.0
29.4001,5017.0
29.4335,4985.0
29.4669,4966.0
29.5004,4998.0
29.5338,5115.0
29.5672,5050.0
29.6006,4990.0
29.634,5109.0
29.6675,5081.0
29.7009,4970.0
29.7343,5208.0
29.7677,5005.0
29.8012,5053.0
29.8346,4990.0
29.868,5110.0
29.9014,5015.0
29.9348,4941.0
29.9683,4989.0
30.0017,5039.0
30.0351,5001.0
30.0685,5153.0
30.102,5052.0
30.1354,4987.0
30.1688,5109.0
30.2022,5062.0
30.2357,5010.0
30.2691,5057.0
30.3025,4976.0
30.3359,4997.0
30.3693,4796.0
30.4028,4954.0
30.4362,4982.0
30.4696,4848.0
30.503,5057.0
30.5365,5032.0
30.5699,4917.0
30.6033,4991.0
30.6367,5074.0
30.6701,4994.0
30.7036,4969.0
30.737,5229.0
30.7704,4961.0
30.8038,4980.0
30.8373,4944.0
30.8707,4964.0
30.9041,5094.0
30.9375,5059.0
30.9709,5060.0
31.0044,4893.0
31.0378,4989.0
31.0712,4967.0
31.1046,4867.0
31.1381,4905.0
31.1715,4931.0
31.2049,4837.0
31.2383,4897.0
31.2718,4992.0
31.3052,4840.0
31.3386,5029.0
31.372,5077.0
31.4054,4992.0
31.4389,5213.0
31.4723,4942.0
31.5057,4810.0
31.5391,4765.0
31.5726,4934.0
31.606,4899.0
31.6394,4958.0
31.6728,4998.0
31.7062,4841.0
31.7397,5030.0
31.7731,4984.0
31.8065,4949.0
31.8399,4988.0
31.8734,4973.0
31.9068,5082.0
31.9402,4986.0
31.9736,5050.0
32.007,5016.0
32.0405,4987.0
32.0739,5041.0
32.1073,5009.0
32.1407,4994.0
32.1742,4990.0
32.2076,5036.0
32.241,5002.0
32.2744,5209.0
32.3078,5131.0
32.3413,4983.0
32.3747,5132.0
32.4081,5115.0
32.4415,5111.0
32.475,5188.0
32.5084,5207.0
32.5418,5256.0
32.5752,5305.0
32.6087,5203.0
32.6421,5310.0
32.6755,5416.0
32.7089,5269.0
32.7423,5383.0
32.7758,5329.0
32.8092,5173.0
32.8426,5303.0
32.876,5369.0
32.9095,5327.0
32.9429,5213.0
32.9763,5291.0
33.0097,5337.0
33.0431,5535.0
33.0766,5371.0
33.11,5446.0
33.1434,5375.0
33.1768,5436.0
33.2103,5650.0
33.2437,5575.0
33.2771,5726.0
33.3105,5917.0
33.3439,5995.0
33.3774,6007.0
33.4108,6090.0
33.4442,5928.0
33.4776,5883.0
33.5111,5704.0
33.5445,5528.0
33.5779,5307.0
33.6113,5283.0
33.6448,5288.0
33.6782,5173.0
33.7116,5145.0
33.745,5165.0
33.7784,5118.0
33.8119,5103.0
33.8453,5101.0
33.8787,5074.0
33.9121,5124.0
33.9456,5106.0
33.979,5184.0
34.0124,4999.0
34.0458,4975.0
34.0792,5090.0
34.1127,5101.0
34.1461,5000.0
34.1795,5132.0
34.2129,5198.0
34.2464,5120.0
34.2798,5270.0
34.3132,5237.0
34.3466,5307.0
34.38,5379.0
34.4135,5373.0
34.4469,5326.0
34.4803,5299.0
34.5137,5273.0
34.5472,5196.0
34.5806,5096.0
34.614,5013.0
34.6474,5110.0
34.6808,4922.0
34.7143,4907.0
34.7477,5005.0
34.7811,4890.0
34.8145,4921.0
34.848,5013.0
34.8814,4902.0
34.9148,5099.0
34.9482,4969.0
34.9817,4944.0
35.0151,4926.0
35.0485,4890.0
35.0819,4845.0
35.1153,4936.0
35.1488,4877.0
35.1822,4877.0
35.2156,4796.0
35.249,4920.0
35.2825,4773.0
35.3159,4977.0
35.3493,4867.0
35.3827,4915.0
35.4161,4919.0
35.4496,4889.0
35.483,4913.0
35.5164,4855.0
35.5498,4880.0
35.5833,4907.0
35.6167,5077.0
35.6501,4853.0
35.6835,4893.0
35.7169,4958.0
35.7504,4880.0
35.7838,4881.0
35.8172,4996.0
35.8506,4896.0
35.8841,4964.0
35.9175,4876.0
35.9509,4900.0
35.9843,4863.0
36.0178,4892.0
36.0512,4779.0
36.0846,4844.0
36.118,4944.0
36.1514,4920.0
36.1849,4867.0
36.2183,4957.0
36.2517,4871.0
36.2851,4959.0
36.3186,4762.0
36.352,4740.0
36.3854,4897.0
36.4188,4859.0
36.4522,4800.0
36.4857,4827.0
36.5191,4851.0
36.5525,4917.0
36.5859,4867.0
36.6194,5017.0
36.6528,4929.0
36.6862,4935.0
36.7196,4856.0
36.753,4862.0
36.7865,4875.0
36.8199,5010.0
36.8533,4782.0
36.8867,4923.0
36.9202,4947.0
36.9536,4819.0
36.987,4990.0
37.0204,4986.0
37.0538,4917.0
37.0873,4867.0
37.1207,4965.0
37.1541,4844.0
37.1875,4878.0
37.221,4837.0
37.2544,4900.0
37.2878,4936.0
37.3212,4936.0
37.3547,4949.0
37.3881,4907.0
37.4215,4960.0
37.4549,4976.0
37.4883,5053.0
37.5218,5036.0
37.5552,5083.0
37.5886,5135.0
37.622,5111.0
37.6555,5097.0
37.6889,5106.0
37.7223,5208.0
37.7557,5123.0
37.7891,4980.0
37.8226,4956.0
37.856,4921.0
37.8894,4955.0
37.9228,5097.0
37.9563,4949.0
37.9897,4808.0
38.0231,4957.0
38.0565,5012.0
38.0899,4959.0
38.1234,4997.0
38.1568,4997.0
38.1902,5063.0
38.2236,4966.0
38.2571,5092.0
38.2905,5180.0
38.3239,5307.0
38.3573,5045.0
38.3908,5172.0
38.4242,5208.0
38.4576,5169.0
38.491,5409.0
38.5244,5445.0
38.5579,5441.0
38.5913,5634.0
38.6247,6049.0
38.6581,6258.0
38.6916,6239.0
38.725,6022.0
38.7584,5867.0
38.7918,5646.0
38.8252,5428.0
38.8587,5234.0
38.8921,5092.0
38.9255,5106.0
38.9589,5049.0
38.9924,5064.0
39.0258,4958.0
39.0592,4951.0
39.0926,4906.0
39.126,4972.0
39.1595,5049.0
39.1929,4999.0
39.2263,4965.0
39.2597,4922.0
39.2932,4975.0
39.3266,4976.0
39.36,4955.0
39.3934,4985.0
39.4269,4794.0
39.4603,4896.0
39.4937,4843.0
39.5271,4992.0
39.5605,4911.0
39.594,4908.0
39.6274,5037.0
39.6608,4972.0
39.6942,5091.0
39.7277,5007.0
39.7611,4939.0
39.7945,5084.0
39.8279,5118.0
39.8613,5218.0
39.8948,5295.0
39.9282,5274.0
39.9616,5540.0
39.995,5550.0
40.0285,5742.0
40.0619,5840.0
40.0953,5982.0
40.1287,5954.0
40.1621,6096.0
40.1956,5588.0
40.229,5557.0
40.2624,5505.0
40.2958,5159.0
40.3293,5322.0
40.3627,5210.0
40.3961,5161.0
40.4295,5128.0
40.4629,5163.0
40.4964,5138.0
40.5298,4987.0
40.5632,5133.0
40.5966,5132.0
40.6301,4877.0
40.6635,5019.0
40.6969,4965.0
40.7303,4902.0
40.7638,5106.0
40.7972,4902.0
40.8306,4956.0
40.864,5019.0
40.8974,4950.0
40.9309,4889.0
40.9643,4940.0
40.9977,4970.0
41.0311,4966.0
41.0646,5010.0
41.098,4935.0
41.1314,4969.0
41.1648,4944.0
41.1982,5100.0
41.2317,4930.0
41.2651,5034.0
41.2985,5068.0
41.3319,5002.0
41.3654,5072.0
41.3988,4920.0
41.4322,5076.0
41.4656,4941.0
41.499,4945.0
41.5325,4958.0
41.5659,4877.0
41.5993,4842.0
41.6327,4988.0
41.6662,4973.0
41.6996,4779.0
41.733,4902.0
41.7664,4925.0
41.7999,4896.0
41.8333,4941.0
41.8667,5059.0
41.9001,4974.0
41.9335,4949.0
41.967,4769.0
42.0004,5099.0
42.0338,4893.0
42.0672,4925.0
42.1007,5113.0
42.1341,5036.0
42.1675,4967.0
42.2009,4890.0
42.2343,4839.0
42.2678,5032.0
42.3012,5004.0
42.3346,5070.0
42.368,4982.0
42.4015,5075.0
42.4349,5141.0
42.4683,4957.0
42.5017,4985.0
42.5351,4936.0
42.5686,5036.0
42.602,4917.0
42.6354,4952.0
42.6688,4989.0
42.7023,4892.0
42.7357,4955.0
42.7691,5096.0
42.8025,4969.0
42.8359,4955.0
42.8694,5010.0
42.9028,5005.0
42.9362,4940.0
42.9696,4898.0
43.0031,4977.0
43.0365,5076.0
43.0699,4976.0
43.1033,5069.0
43.1368,4980.0
43.1702,5034.0
43.2036,4908.0
43.237,5045.0
43.2704,5039.0
43.3039,4933.0
43.3373,5062.0
43.3707,5008.0
43.4041,5085.0
43.4376,5055.0
43.471,5020.0
43.5044,4958.0
43.5378,4943.0
43.5712,4821.0
43.6047,4899.0
43.6381,4921.0
43.6715,4960.0
43.7049,4999.0
43.7384,4949.0
43.7718,4881.0
43.8052,5030.0
43.8386,4919.0
43.872,4977.0
43.9055,5018.0
43.9389,5003.0
43.9723,5016.0
44.0057,5018.0
44.0392,4946.0
44.0726,4883.0
44.106,5048.0
44.1394,4909.0
44.1729,4850.0
44.2063,5027.0
44.2397,4986.0
44.2731,4966.0
44.3065,5016.0
44.34,4935.0
44.3734,4964.0
44.4068,4975.0
44.4402,4972.0
44.4737,4973.0
44.5071,5047.0
44.5405,4999.0
44.5739,5241.0
44.6073,5107.0
44.6408,5087.0
44.6742,5187.0
44.7076,5169.0
44.741,5271.0
44.7745,5387.0
44.8079,5633.0
44.8413,5841.0
44.8747,6211.0
44.9081,6718.0
44.9416,7337.0
44.975,7395.0
45.0084,7139.0
45.0418,7094.0
45.0753,6590.0
45.1087,6289.0
45.1421,5822.0
45.1755,5633.0
45.2089,5348.0
45.2424,5280.0
45.2758,5190.0
45.3092,5095.0
45.3426,5035.0
45.3761,4997.0
45.4095,5030.0
45.4429,4952.0
45.4763,5001.0
45.5098,4874.0
45.5432,4920.0
45.5766,4964.0
45.61,4876.0
45.6434,4961.0
45.6769,4763.0
45.7103,4867.0
45.7437,4967.0
45.7771,5125.0
45.8106,4819.0
45.844,4954.0
45.8774,4914.0
45.9108,4911.0
45.9442,4971.0
45.9777,4920.0
46.0111,4914.0
46.0445,4913.0
46.0779,4980.0
46.1114,4902.0
46.1448,5063.0
46.1782,4973.0
46.2116,5051.0
46.245,4826.0
46.2785,4818.0
46.3119,5038.0
46.3453,4988.0
46.3787,4841.0
46.4122,4997.0
46.4456,4969.0
46.479,4856.0
46.5124,4940.0
46.5459,4863.0
46.5793,4933.0
46.6127,4859.0
46.6461,4886.0
46.6795,5084.0
46.713,5057.0
46.7464,4935.0
46.7798,4867.0
46.8132,5028.0
46.8467,4827.0
46.8801,4914.0
46.9135,4973.0
46.9469,4926.0
46.9803,4983.0
47.0138,5023.0
47.0472,5028.0
47.0806,5041.0
47.114,5075.0
47.1475,4848.0
47.1809,4934.0
47.2143,5098.0
47.2477,4884.0
47.2811,4856.0
47.3146,4965.0
47.348,4960.0
47.3814,5004.0
47.4148,4889.0
47.4483,4875.0
47.4817,5005.0
47.5151,5050.0
47.5485,4832.0
47.5819,5016.0
47.6154,4974.0
47.6488,5080.0
47.6822,5150.0
47.7156,4991.0
47.7491,5055.0
47.7825,4902.0
47.8159,4999.0
47.8493,4969.0
47.8828,5043.0
47.9162,5090.0
47.9496,5027.0
47.983,5025.0
48.0164,5090.0
48.0499,5129.0
48.0833,5017.0
48.1167,5106.0
48.1501,5153.0
48.1836,5117.0
48.217,5187.0
48.2504,5281.0
48.2838,5301.0
48.3172,5222.0
48.3507,5409.0
48.3841,5283.0
48.4175,5437.0
48.4509,5203.0
48.4844,5509.0
48.5178,5755.0
48.5512,5584.0
48.5846,6092.0
48.618,6359.0
48.6515,6643.0
48.6849,6782.0
48.7183,6975.0
48.7517,6874.0
48.7852,6922.0
48.8186,6594.0
48.852,6344.0
48.8854,6078.0
48.9189,5744.0
48.9523,5662.0
48.9857,5437.0
49.0191,5353.0
49.0525,5223.0
49.086,5404.0
49.1194,5233.0
49.1528,5274.0
49.1862,5049.0
49.2197,5093.0
49.2531,5116.0
49.2865,5150.0
49.3199,5022.0
49.3533,5241.0
49.3868,5043.0
49.4202,5087.0
49.4536,5119.0
49.487,5221.0
49.5205,5148.0
49.5539,5028.0
49.5873,5185.0
49.6207,5245.0
49.6541,5084.0
49.6876,5273.0
49.721,5329.0
49.7544,5092.0
49.7878,5292.0
49.8213,5285.0
49.8547,5307.0
49.8881,5184.0
49.9215,5402.0
49.9549,5464.0
49.9884,5582.0
50.0218,5543.0
50.0552,5481.0
50.0886,5534.0
50.1221,5438.0
50.1555,5383.0
50.1889,5430.0
50.2223,5345.0
50.2558,5232.0
50.2892,5269.0
50.3226,5222.0
50.356,5269.0
50.3894,5098.0
50.4229,5255.0
50.4563,5082.0
50.4897,5079.0
50.5231,5101.0
50.5566,5141.0
50.59,5137.0
50.6234,5043.0
50.6568,5119.0
50.6902,5216.0
50.7237,4989.0
50.7571,5140.0
50.7905,5126.0
50.8239,5169.0
50.8574,5091.0
50.8908,4990.0
50.9242,5087.0
50.9576,5193.0
50.991,5009.0
51.0245,5054.0
51.0579,5070.0
51.0913,5108.0
51.1247,5117.0
51.1582,5110.0
51.1916,4949.0
51.225,5160.0
51.2584,5076.0
51.2919,5144.0
51.3253,5132.0
51.3587,5184.0
51.3921,5270.0
51.4255,5328.0
51.459,5405.0
51.4924,5457.0
51.5258,5377.0
51.5592,5286.0
51.5927,5301.0
51.6261,5153.0
51.6595,5194.0
51.6929,5201.0
51.7263,5163.0
51.7598,5110.0
51.7932,4992.0
51.8266,5065.0
51.86,5053.0
51.8935,5055.0
51.9269,5077.0
51.9603,4947.0
51.9937,5056.0
52.0271,5021.0
52.0606,5069.0
52.094,4936.0
52.1274,5146.0
52.1608,5043.0
52.1943,5111.0
52.2277,5069.0
52.2611,4986.0
52.2945,5036.0
52.3279,4980.0
52.3614,4929.0
52.3948,4897.0
52.4282,4992.0
52.4616,4983.0
52.4951,5023.0
52.5285,5052.0
52.5619,4908.0
52.5953,5083.0
52.6288,5070.0
52.6622,5013.0
52.6956,4986.0
52.729,4944.0
52.7624,5135.0
52.7959,5094.0
52.8293,4964.0
52.8627,5007.0
52.8961,5122.0
52.9296,5120.0
52.963,5221.0
52.9964,5142.0
53.0298,5094.0
53.0632,5169.0
53.0967,5176.0
53.1301,5132.0
53.1635,5229.0
53.1969,4947.0
53.2304,5148.0
53.2638,5132.0
53.2972,5035.0
53.3306,5054.0
53.364,4938.0
53.3975,5030.0
53.4309,5117.0
53.4643,5100.0
53.4977,5173.0
53.5312,5114.0
53.5646,5093.0
53.598,5095.0
53.6314,5029.0
53.6649,5151.0
53.6983,5141.0
53.7317,5125.0
53.7651,5242.0
53.7985,5125.0
53.832,5180.0
53.8654,5178.0
53.8988,5294.0
53.9322,5429.0
53.9657,5359.0
53.9991,5510.0
54.0325,5685.0
54.0659,5732.0
54.0993,6092.0
54.1328,6203.0
54.1662,6307.0
54.1996,6694.0
54.233,6651.0
54.2665,6722.0
54.2999,6500.0
54.3333,6293.0
54.3667,6165.0
54.4001,6086.0
54.4336,6057.0
54.467,5865.0
54.5004,5819.0
54.5338,5559.0
54.5673,5484.0
54.6007,5417.0
54.6341,5311.0
54.6675,5273.0
54.701,5178.0
54.7344,5268.0
54.7678,5198.0
54.8012,5305.0
54.8346,5151.0
54.8681,5041.0
54.9015,5227.0
54.9349,5131.0
54.9683,5212.0
55.0018,5242.0
55.0352,5298.0
55.0686,5282.0
55.102,5392.0
55.1354,5341.0
55.1689,5359.0
55.2023,5416.0
55.2357,5502.0
55.2691,5440.0
55.3026,5393.0
55.336,5478.0
55.3694,5515.0
55.4028,5658.0
55.4362,5719.0
55.4697,5775.0
55.5031,5748.0
55.5365,5913.0
55.5699,5862.0
55.6034,5866.0
55.6368,5824.0
55.6702,5750.0
55.7036,5822.0
55.737,5738.0
55.7705,5700.0
55.8039,5566.0
55.8373,5538.0
55.8707,5424.0
55.9042,5552.0
55.9376,5195.0
55.971,5413.0
56.0044,5383.0
56.0379,5276.0
56.0713,5190.0
56.1047,5106.0
56.1381,5178.0
56.1715,5135.0
56.205,5059.0
56.2384,5242.0
56.2718,5103.0
56.3052,5148.0
56.3387,5124.0
56.3721,5239.0
56.4055,5172.0
56.4389,5100.0
56.4723,5159.0
56.5058,5130.0
56.5392,5164.0
56.5726,5116.0
56.606,5112.0
56.6395,5205.0
56.6729,5098.0
56.7063,5169.0
56.7397,5117.0
56.7731,5113.0
56.8066,5229.0
56.84,5090.0
56.8734,5102.0
56.9068,5067.0
56.9403,4929.0
56.9737,4988.0
57.0071,5078.0
57.0405,5117.0
57.074,5123.0
57.1074,4896.0
57.1408,5054.0
57.1742,5056.0
57.2076,5143.0
57.2411,4938.0
57.2745,4939.0
57.3079,5020.0
57.3413,5067.0
57.3748,5065.0
57.4082,5053.0
57.4416,5018.0
57.475,4985.0
57.5084,5043.0
57.5419,5120.0
57.5753,5043.0
57.6087,5023.0
57.6421,5053.0
57.6756,5116.0
57.709,5010.0
57.7424,5175.0
57.7758,5086.0
57.8092,5018.0
57.8427,5103.0
57.8761,5097.0
57.9095,5071.0
57.9429,5014.0
57.9764,4920.0
58.0098,4939.0
58.0432,5016.0
58.0766,4999.0
58.11,5054.0
58.1435,5125.0
58.1769,5066.0
58.2103,4894.0
58.2437,5097.0
58.2772,4921.0
58.3106,5025.0
58.344,5085.0
58.3774,5031.0
58.4109,5033.0
58.4443,5056.0
58.4777,5079.0
58.5111,4968.0
58.5445,5097.0
58.578,5139.0
58.6114,4998.0
58.6448,4990.0
58.6782,5092.0
58.7117,5142.0
58.7451,5008.0
58.7785,5086.0
58.8119,5017.0
58.8453,5150.0
58.8788,4978.0
58.9122,5197.0
58.9456,5175.0
58.979,5157.0
59.0125,5154.0
59.0459,5207.0
59.0793,5223.0
59.1127,5212.0
59.1461,5160.0
59.1796,5185.0
59.213,5115.0
59.2464,5094.0
59.2798,5078.0
59.3133,5009.0
59.3467,5132.0
59.3801,5129.0
59.4135,5003.0
59.447,5049.0
59.4804,5075.0
59.5138,5117.0
59.5472,5016.0
59.5806,4936.0
59.6141,4852.0
59.6475,5207.0
59.6809,5005.0
59.7143,4907.0
59.7478,5051.0
59.7812,5032.0
59.8146,5086.0
59.848,4998.0
59.8814,5085.0
59.9149,5148.0
59.9483,5069.0
59.9817,5074.0
60.0151,5088.0
60.0486,5119.0
60.082,5114.0
60.1154,5044.0
60.1488,4934.0
60.1822,5151.0
60.2157,5213.0
60.2491,5002.0
60.2825,5143.0
60.3159,5021.0
60.3494,4980.0
60.3828,5008.0
60.4162,4920.0
60.4496,4993.0
60.483,5280.0
60.5165,5057.0
60.5499,5173.0
60.5833,5036.0
60.6167,5106.0
60.6502,5219.0
60.6836,5098.0
60.717,5201.0
60.7504,5188.0
60.7839,5198.0
60.8173,5196.0
60.8507,5267.0
60.8841,5227.0
60.9175,5406.0
60.951,5369.0
60.9844,5384.0
61.0178,5327.0
61.0512,5490.0
61.0847,5591.0
61.1181,5337.0
61.1515,5263.0
61.1849,5383.0
61.2183,5424.0
61.2518,5286.0
61.2852,5427.0
61.3186,5316.0
61.352,5248.0
61.3855,5324.0
61.4189,5387.0
61.4523,5210.0
61.4857,5345.0
61.5191,5430.0
61.5526,5250.0
61.586,5327.0
61.6194,5460.0
61.6528,5497.0
61.6863,5493.0
61.7197,5571.0
61.7531,5413.0
61.7865,5264.0
61.82,5379.0
61.8534,5238.0
61.8868,5404.0
61.9202,5163.0
61.9536,5320.0
61.9871,5153.0
62.0205,5446.0
62.0539,5297.0
62.0873,5247.0
62.1208,5243.0
62.1542,5369.0
62.1876,5180.0
62.221,5268.0
62.2544,5106.0
62.2879,5250.0
62.3213,5264.0
62.3547,5181.0
62.3881,5252.0
62.4216,5242.0
62.455,5143.0
62.4884,5213.0
62.5218,5165.0
62.5552,5251.0
62.5887,5239.0
62.6221,5189.0
62.6555,5338.0
62.6889,5157.0
62.7224,5070.0
62.7558,5296.0
62.7892,5176.0
62.8226,5084.0
62.856,5253.0
62.8895,5174.0
62.9229,5069.0
62.9563,5264.0
62.9897,5235.0
63.0232,5067.0
63.0566,4975.0
63.09,5184.0
63.1234,5096.0
63.1569,5139.0
63.1903,5057.0
63.2237,5024.0
63.2571,5020.0
63.2905,5046.0
63.324,5060.0
63.3574,5102.0
63.3908,5046.0
63.4242,5194.0
63.4577,5066.0
63.4911,5020.0
63.5245,5328.0
63.5579,5263.0
63.5913,5272.0
63.6248,5195.0
63.6582,5020.0
63.6916,5228.0
63.725,5230.0
63.7585,5235.0
63.7919,5259.0
63.8253,5197.0
63.8587,5240.0
63.8921,5253.0
63.9256,5243.0
63.959,4990.0
63.9924,5149.0
64.0258,5076.0
64.0593,5091.0
64.0927,5106.0
64.1261,5070.0
64.1595,5116.0
64.193,5072.0
64.2264,5047.0
64.2598,5048.0
64.2932,5078.0
64.3266,5140.0
64.3601,5153.0
64.3935,5170.0
64.4269,5180.0
64.4603,5007.0
64.4938,5060.0
64.5272,5084.0
64.5606,5095.0
64.594,5249.0
64.6274,5069.0
64.6609,5120.0
64.6943,5046.0
64.7277,5167.0
64.7611,5110.0
64.7946,5163.0
64.828,5180.0
64.8614,4988.0
64.8948,5153.0
64.9282,5043.0
64.9617,5035.0
64.9951,5118.0
65.0285,5107.0
65.0619,4976.0
65.0954,5243.0
65.1288,5148.0
65.1622,5114.0
65.1956,5209.0
65.229,5161.0
65.2625,5186.0
65.2959,5141.0
65.3293,5316.0
65.3627,5250.0
65.3962,5497.0
65.4296,5673.0
65.463,5710.0
65.4964,5828.0
65.5299,5590.0
65.5633,5729.0
65.5967,5562.0
65.6301,5523.0
65.6635,5619.0
65.697,5615.0
65.7304,5512.0
65.7638,5233.0
65.7972,5213.0
65.8307,5156.0
65.8641,5085.0
65.8975,5129.0
65.9309,5182.0
65.9643,5006.0
65.9978,5135.0
66.0312,5186.0
66.0646,5076.0
66.098,5153.0
66.1315,5193.0
66.1649,5164.0
66.1983,5091.0
66.2317,5151.0
66.2651,5161.0
66.2986,5206.0
66.332,5223.0
66.3654,5083.0
66.3988,5119.0
66.4323,5060.0
66.4657,5110.0
66.4991,5230.0
66.5325,5091.0
66.566,5085.0
66.5994,5045.0
66.6328,5128.0
66.6662,5092.0
66.6996,5051.0
66.7331,5039.0
66.7665,4983.0
66.7999,4933.0
66.8333,5031.0
66.8668,5015.0
66.9002,5104.0
66.9336,5098.0
66.967,5100.0
67.0004,5110.0
67.0339,5149.0
67.0673,5106.0
67.1007,5149.0
67.1341,5102.0
67.1676,5140.0
67.201,5055.0
67.2344,5130.0
67.2678,5015.0
67.3012,4942.0
67.3347,4960.0
67.3681,5053.0
67.4015,5066.0
67.4349,5175.0
67.4684,5132.0
67.5018,5015.0
67.5352,4987.0
67.5686,5012.0
67.602,5032.0
67.6355,4984.0
67.6689,5075.0
67.7023,5132.0
67.7357,4988.0
67.7692,5086.0
67.8026,5116.0
67.836,5101.0
67.8694,5034.0
67.9029,5036.0
67.9363,5088.0
67.9697,5057.0
68.0031,5066.0
68.0365,5083.0
68.07,5009.0
68.1034,5007.0
68.1368,5059.0
68.1702,5200.0
68.2037,5166.0
68.2371,5147.0
68.2705,5080.0
68.3039,5137.0
68.3373,5047.0
68.3708,4986.0
68.4042,5142.0
68.4376,5006.0
68.471,4931.0
68.5045,4975.0
68.5379,5127.0
68.5713,5010.0
68.6047,4919.0
68.6381,4922.0
68.6716,5172.0
68.705,4999.0
68.7384,5099.0
68.7718,5034.0
68.8053,5092.0
68.8387,4988.0
68.8721,5019.0
68.9055,5079.0
68.939,5094.0
68.9724,5156.0
69.0058,5079.0
69.0392,5117.0
69.0726,5044.0
69.1061,5165.0
69.1395,5248.0
69.1729,5080.0
69.2063,5161.0
69.2398,5330.0
69.2732,5092.0
69.3066,5050.0
69.34,5216.0
69.3734,4980.0
69.4069,5068.0
69.4403,5050.0
69.4737,5093.0
69.5071,5113.0
69.5406,5172.0
69.574,5117.0
69.6074,5264.0
69.6408,5106.0
69.6742,5156.0
69.7077,5095.0
69.7411,5182.0
69.7745,5019.0
69.8079,5214.0
69.8414,5302.0
69.8748,5221.0
69.9082,5069.0
69.9416,5173.0
69.975,5425.0
69.9918,5271.0