File: herald_visualization/Delia_Scripts/VF4_1to1_KS6Lgraphite/VF4_1to1_KS6Lgraphite_raw/240827-VF4_1to1_KS6Lgraphite-0min_milled-20-70deg_40min.csv
2Theta,Intensity
20.0084,3779.0
20.0418,3794.0
20.0752,3704.0
20.1086,3630.0
20.142,3573.0
20.1755,3741.0
20.2089,3778.0
20.2423,3694.0
20.2757,3652.0
20.3092,3680.0
20.3426,3608.0
20.376,3640.0
20.4094,3592.0
20.4428,3506.0
20.4763,3649.0
20.5097,3593.0
20.5431,3609.0
20.5765,3465.0
20.61,3470.0
20.6434,3535.0
20.6768,3504.0
20.7102,3517.0
20.7437,3473.0
20.7771,3432.0
20.8105,3449.0
20.8439,3343.0
20.8773,3416.0
20.9108,3461.0
20.9442,3464.0
20.9776,3363.0
21.011,3446.0
21.0445,3335.0
21.0779,3306.0
21.1113,3230.0
21.1447,3304.0
21.1781,3180.0
21.2116,3319.0
21.245,3248.0
21.2784,3164.0
21.3118,3172.0
21.3453,3139.0
21.3787,3189.0
21.4121,3106.0
21.4455,3074.0
21.4789,3089.0
21.5124,3177.0
21.5458,3096.0
21.5792,3072.0
21.6126,3019.0
21.6461,3086.0
21.6795,2919.0
21.7129,2897.0
21.7463,3070.0
21.7798,3002.0
21.8132,2909.0
21.8466,2959.0
21.88,2894.0
21.9134,2846.0
21.9469,2762.0
21.9803,2783.0
22.0137,2820.0
22.0471,2855.0
22.0806,2802.0
22.114,2794.0
22.1474,2817.0
22.1808,2817.0
22.2142,2747.0
22.2477,2812.0
22.2811,2801.0
22.3145,2705.0
22.3479,2768.0
22.3814,2777.0
22.4148,2721.0
22.4482,2700.0
22.4816,2724.0
22.515,2718.0
22.5485,2713.0
22.5819,2692.0
22.6153,2626.0
22.6487,2611.0
22.6822,2690.0
22.7156,2666.0
22.749,2633.0
22.7824,2684.0
22.8158,2584.0
22.8493,2648.0
22.8827,2711.0
22.9161,2573.0
22.9495,2566.0
22.983,2677.0
23.0164,2599.0
23.0498,2642.0
23.0832,2569.0
23.1167,2722.0
23.1501,2699.0
23.1835,2659.0
23.2169,2727.0
23.2503,2726.0
23.2838,2807.0
23.3172,2868.0
23.3506,2690.0
23.384,2781.0
23.4175,2870.0
23.4509,2891.0
23.4843,2928.0
23.5177,3010.0
23.5511,3174.0
23.5846,3238.0
23.618,3337.0
23.6514,3544.0
23.6848,3651.0
23.7183,3871.0
23.7517,4212.0
23.7851,4341.0
23.8185,4684.0
23.8519,5033.0
23.8854,5267.0
23.9188,5277.0
23.9522,5516.0
23.9856,5619.0
24.0191,5444.0
24.0525,5195.0
24.0859,5046.0
24.1193,4567.0
24.1528,4365.0
24.1862,3896.0
24.2196,3666.0
24.253,3496.0
24.2864,3161.0
24.3199,3030.0
24.3533,2881.0
24.3867,2852.0
24.4201,2727.0
24.4536,2587.0
24.487,2568.0
24.5204,2517.0
24.5538,2444.0
24.5872,2430.0
24.6207,2465.0
24.6541,2265.0
24.6875,2287.0
24.7209,2190.0
24.7544,2161.0
24.7878,2238.0
24.8212,2191.0
24.8546,2163.0
24.888,2271.0
24.9215,2225.0
24.9549,2257.0
24.9883,2078.0
25.0217,2130.0
25.0552,2098.0
25.0886,2060.0
25.122,2067.0
25.1554,2098.0
25.1888,2085.0
25.2223,2054.0
25.2557,2086.0
25.2891,2095.0
25.3225,2130.0
25.356,2107.0
25.3894,2172.0
25.4228,2162.0
25.4562,2265.0
25.4897,2291.0
25.5231,2365.0
25.5565,2476.0
25.5899,2823.0
25.6233,3161.0
25.6568,3595.0
25.6902,4497.0
25.7236,5584.0
25.757,6847.0
25.7905,8013.0
25.8239,8275.0
25.8573,7557.0
25.8907,6317.0
25.9241,4723.0
25.9576,3494.0
25.991,2727.0
26.0244,2361.0
26.0578,2140.0
26.0913,2194.0
26.1247,2097.0
26.1581,2069.0
26.1915,1962.0
26.2249,2063.0
26.2584,2064.0
26.2918,2115.0
26.3252,2165.0
26.3586,2242.0
26.3921,2352.0
26.4255,2483.0
26.4589,2632.0
26.4923,2840.0
26.5258,2909.0
26.5592,2963.0
26.5926,2725.0
26.626,2601.0
26.6594,2311.0
26.6929,2223.0
26.7263,2014.0
26.7597,1879.0
26.7931,1842.0
26.8266,1848.0
26.86,1881.0
26.8934,1789.0
26.9268,1791.0
26.9602,1718.0
26.9937,1811.0
27.0271,1747.0
27.0605,1764.0
27.0939,1735.0
27.1274,1844.0
27.1608,1815.0
27.1942,1739.0
27.2276,1703.0
27.261,1709.0
27.2945,1733.0
27.3279,1717.0
27.3613,1747.0
27.3947,1705.0
27.4282,1714.0
27.4616,1653.0
27.495,1677.0
27.5284,1653.0
27.5618,1751.0
27.5953,1648.0
27.6287,1647.0
27.6621,1660.0
27.6955,1615.0
27.729,1628.0
27.7624,1533.0
27.7958,1677.0
27.8292,1574.0
27.8627,1551.0
27.8961,1619.0
27.9295,1434.0
27.9629,1593.0
27.9963,1506.0
28.0298,1661.0
28.0632,1607.0
28.0966,1597.0
28.13,1606.0
28.1635,1527.0
28.1969,1550.0
28.2303,1557.0
28.2637,1513.0
28.2971,1589.0
28.3306,1522.0
28.364,1488.0
28.3974,1511.0
28.4308,1461.0
28.4643,1537.0
28.4977,1480.0
28.5311,1468.0
28.5645,1453.0
28.5979,1509.0
28.6314,1480.0
28.6648,1467.0
28.6982,1501.0
28.7316,1418.0
28.7651,1545.0
28.7985,1537.0
28.8319,1475.0
28.8653,1461.0
28.8988,1417.0
28.9322,1467.0
28.9656,1454.0
28.999,1427.0
29.0324,1450.0
29.0659,1346.0
29.0993,1439.0
29.1327,1410.0
29.1661,1315.0
29.1996,1420.0
29.233,1423.0
29.2664,1405.0
29.2998,1373.0
29.3332,1415.0
29.3667,1394.0
29.4001,1325.0
29.4335,1330.0
29.4669,1369.0
29.5004,1327.0
29.5338,1406.0
29.5672,1363.0
29.6006,1328.0
29.634,1351.0
29.6675,1420.0
29.7009,1286.0
29.7343,1324.0
29.7677,1338.0
29.8012,1307.0
29.8346,1308.0
29.868,1352.0
29.9014,1309.0
29.9348,1376.0
29.9683,1277.0
30.0017,1383.0
30.0351,1385.0
30.0685,1276.0
30.102,1317.0
30.1354,1214.0
30.1688,1312.0
30.2022,1309.0
30.2357,1345.0
30.2691,1355.0
30.3025,1244.0
30.3359,1282.0
30.3693,1263.0
30.4028,1285.0
30.4362,1271.0
30.4696,1228.0
30.503,1254.0
30.5365,1271.0
30.5699,1282.0
30.6033,1281.0
30.6367,1268.0
30.6701,1197.0
30.7036,1261.0
30.737,1246.0
30.7704,1198.0
30.8038,1218.0
30.8373,1206.0
30.8707,1199.0
30.9041,1238.0
30.9375,1246.0
30.9709,1180.0
31.0044,1153.0
31.0378,1203.0
31.0712,1200.0
31.1046,1213.0
31.1381,1227.0
31.1715,1231.0
31.2049,1227.0
31.2383,1173.0
31.2718,1144.0
31.3052,1167.0
31.3386,1126.0
31.372,1174.0
31.4054,1205.0
31.4389,1203.0
31.4723,1129.0
31.5057,1080.0
31.5391,1140.0
31.5726,1122.0
31.606,1218.0
31.6394,1140.0
31.6728,1164.0
31.7062,1153.0
31.7397,1138.0
31.7731,1136.0
31.8065,1117.0
31.8399,1194.0
31.8734,1065.0
31.9068,1107.0
31.9402,1092.0
31.9736,1094.0
32.007,1061.0
32.0405,1169.0
32.0739,1088.0
32.1073,1117.0
32.1407,1111.0
32.1742,1085.0
32.2076,1118.0
32.241,1148.0
32.2744,1144.0
32.3078,1148.0
32.3413,1149.0
32.3747,1201.0
32.4081,1085.0
32.4415,1060.0
32.475,1070.0
32.5084,1074.0
32.5418,1127.0
32.5752,1037.0
32.6087,1092.0
32.6421,1092.0
32.6755,1112.0
32.7089,1077.0
32.7423,1108.0
32.7758,1062.0
32.8092,1132.0
32.8426,1074.0
32.876,1031.0
32.9095,1156.0
32.9429,1119.0
32.9763,1125.0
33.0097,1116.0
33.0431,1156.0
33.0766,1187.0
33.11,1166.0
33.1434,1102.0
33.1768,1203.0
33.2103,1229.0
33.2437,1186.0
33.2771,1273.0
33.3105,1348.0
33.3439,1334.0
33.3774,1392.0
33.4108,1390.0
33.4442,1486.0
33.4776,1545.0
33.5111,1704.0
33.5445,1780.0
33.5779,1966.0
33.6113,1844.0
33.6448,1703.0
33.6782,1563.0
33.7116,1417.0
33.745,1329.0
33.7784,1168.0
33.8119,1177.0
33.8453,1181.0
33.8787,1127.0
33.9121,1125.0
33.9456,1218.0
33.979,1040.0
34.0124,1053.0
34.0458,1093.0
34.0792,1065.0
34.1127,1056.0
34.1461,1024.0
34.1795,1103.0
34.2129,1046.0
34.2464,979.0
34.2798,1057.0
34.3132,995.0
34.3466,956.0
34.38,1072.0
34.4135,1022.0
34.4469,1006.0
34.4803,1075.0
34.5137,1026.0
34.5472,1075.0
34.5806,1082.0
34.614,1102.0
34.6474,1196.0
34.6808,1213.0
34.7143,1273.0
34.7477,1237.0
34.7811,1236.0
34.8145,1154.0
34.848,1195.0
34.8814,1001.0
34.9148,1062.0
34.9482,1077.0
34.9817,1056.0
35.0151,959.0
35.0485,966.0
35.0819,990.0
35.1153,923.0
35.1488,947.0
35.1822,991.0
35.2156,951.0
35.249,891.0
35.2825,905.0
35.3159,920.0
35.3493,881.0
35.3827,856.0
35.4161,876.0
35.4496,890.0
35.483,885.0
35.5164,827.0
35.5498,867.0
35.5833,914.0
35.6167,849.0
35.6501,897.0
35.6835,862.0
35.7169,839.0
35.7504,896.0
35.7838,864.0
35.8172,896.0
35.8506,862.0
35.8841,837.0
35.9175,900.0
35.9509,872.0
35.9843,862.0
36.0178,850.0
36.0512,790.0
36.0846,778.0
36.118,817.0
36.1514,856.0
36.1849,813.0
36.2183,858.0
36.2517,858.0
36.2851,877.0
36.3186,853.0
36.352,827.0
36.3854,862.0
36.4188,811.0
36.4522,831.0
36.4857,845.0
36.5191,763.0
36.5525,875.0
36.5859,762.0
36.6194,861.0
36.6528,868.0
36.6862,843.0
36.7196,837.0
36.753,864.0
36.7865,827.0
36.8199,780.0
36.8533,809.0
36.8867,823.0
36.9202,803.0
36.9536,810.0
36.987,840.0
37.0204,804.0
37.0538,799.0
37.0873,789.0
37.1207,802.0
37.1541,768.0
37.1875,794.0
37.221,791.0
37.2544,864.0
37.2878,804.0
37.3212,739.0
37.3547,776.0
37.3881,813.0
37.4215,825.0
37.4549,777.0
37.4883,844.0
37.5218,757.0
37.5552,858.0
37.5886,795.0
37.622,797.0
37.6555,891.0
37.6889,861.0
37.7223,878.0
37.7557,906.0
37.7891,943.0
37.8226,866.0
37.856,941.0
37.8894,831.0
37.9228,844.0
37.9563,872.0
37.9897,834.0
38.0231,836.0
38.0565,861.0
38.0899,810.0
38.1234,798.0
38.1568,857.0
38.1902,807.0
38.2236,766.0
38.2571,764.0
38.2905,789.0
38.3239,877.0
38.3573,946.0
38.3908,927.0
38.4242,1029.0
38.4576,1087.0
38.491,1159.0
38.5244,1133.0
38.5579,1152.0
38.5913,1057.0
38.6247,959.0
38.6581,991.0
38.6916,918.0
38.725,867.0
38.7584,802.0
38.7918,800.0
38.8252,770.0
38.8587,804.0
38.8921,735.0
38.9255,756.0
38.9589,814.0
38.9924,790.0
39.0258,812.0
39.0592,777.0
39.0926,752.0
39.126,748.0
39.1595,717.0
39.1929,756.0
39.2263,712.0
39.2597,705.0
39.2932,759.0
39.3266,775.0
39.36,786.0
39.3934,774.0
39.4269,687.0
39.4603,777.0
39.4937,774.0
39.5271,806.0
39.5605,797.0
39.594,736.0
39.6274,813.0
39.6608,779.0
39.6942,797.0
39.7277,844.0
39.7611,869.0
39.7945,972.0
39.8279,997.0
39.8613,1095.0
39.8948,1184.0
39.9282,1317.0
39.9616,1360.0
39.995,1400.0
40.0285,1345.0
40.0619,1261.0
40.0953,1166.0
40.1287,1145.0
40.1621,1165.0
40.1956,1108.0
40.229,1085.0
40.2624,1172.0
40.2958,1133.0
40.3293,1222.0
40.3627,1284.0
40.3961,1294.0
40.4295,1297.0
40.4629,1268.0
40.4964,1277.0
40.5298,1273.0
40.5632,1154.0
40.5966,1174.0
40.6301,1045.0
40.6635,1057.0
40.6969,999.0
40.7303,1010.0
40.7638,917.0
40.7972,932.0
40.8306,925.0
40.864,887.0
40.8974,880.0
40.9309,815.0
40.9643,774.0
40.9977,781.0
41.0311,796.0
41.0646,774.0
41.098,720.0
41.1314,746.0
41.1648,679.0
41.1982,707.0
41.2317,727.0
41.2651,705.0
41.2985,728.0
41.3319,732.0
41.3654,739.0
41.3988,730.0
41.4322,710.0
41.4656,676.0
41.499,735.0
41.5325,720.0
41.5659,692.0
41.5993,668.0
41.6327,712.0
41.6662,685.0
41.6996,651.0
41.733,645.0
41.7664,708.0
41.7999,698.0
41.8333,712.0
41.8667,686.0
41.9001,681.0
41.9335,656.0
41.967,668.0
42.0004,645.0
42.0338,667.0
42.0672,647.0
42.1007,664.0
42.1341,674.0
42.1675,726.0
42.2009,702.0
42.2343,730.0
42.2678,821.0
42.3012,830.0
42.3346,924.0
42.368,975.0
42.4015,1039.0
42.4349,1121.0
42.4683,1042.0
42.5017,1067.0
42.5351,1077.0
42.5686,1134.0
42.602,1176.0
42.6354,1182.0
42.6688,1062.0
42.7023,1031.0
42.7357,1015.0
42.7691,852.0
42.8025,865.0
42.8359,772.0
42.8694,730.0
42.9028,728.0
42.9362,708.0
42.9696,655.0
43.0031,694.0
43.0365,634.0
43.0699,660.0
43.1033,664.0
43.1368,651.0
43.1702,714.0
43.2036,641.0
43.237,613.0
43.2704,630.0
43.3039,637.0
43.3373,651.0
43.3707,654.0
43.4041,624.0
43.4376,669.0
43.471,658.0
43.5044,632.0
43.5378,710.0
43.5712,665.0
43.6047,655.0
43.6381,632.0
43.6715,638.0
43.7049,626.0
43.7384,636.0
43.7718,651.0
43.8052,630.0
43.8386,632.0
43.872,647.0
43.9055,650.0
43.9389,642.0
43.9723,594.0
44.0057,639.0
44.0392,623.0
44.0726,629.0
44.106,671.0
44.1394,622.0
44.1729,564.0
44.2063,623.0
44.2397,597.0
44.2731,610.0
44.3065,608.0
44.34,611.0
44.3734,595.0
44.4068,643.0
44.4402,607.0
44.4737,578.0
44.5071,601.0
44.5405,611.0
44.5739,570.0
44.6073,608.0
44.6408,631.0
44.6742,661.0
44.7076,633.0
44.741,567.0
44.7745,571.0
44.8079,617.0
44.8413,545.0
44.8747,595.0
44.9081,638.0
44.9416,585.0
44.975,578.0
45.0084,573.0
45.0418,575.0
45.0753,588.0
45.1087,622.0
45.1421,605.0
45.1755,595.0
45.2089,588.0
45.2424,598.0
45.2758,575.0
45.3092,593.0
45.3426,602.0
45.3761,572.0
45.4095,599.0
45.4429,558.0
45.4763,607.0
45.5098,516.0
45.5432,567.0
45.5766,561.0
45.61,587.0
45.6434,544.0
45.6769,543.0
45.7103,519.0
45.7437,511.0
45.7771,535.0
45.8106,525.0
45.844,554.0
45.8774,582.0
45.9108,568.0
45.9442,554.0
45.9777,572.0
46.0111,532.0
46.0445,541.0
46.0779,524.0
46.1114,552.0
46.1448,506.0
46.1782,517.0
46.2116,555.0
46.245,546.0
46.2785,513.0
46.3119,539.0
46.3453,552.0
46.3787,528.0
46.4122,530.0
46.4456,521.0
46.479,562.0
46.5124,485.0
46.5459,496.0
46.5793,501.0
46.6127,509.0
46.6461,491.0
46.6795,545.0
46.713,550.0
46.7464,530.0
46.7798,566.0
46.8132,522.0
46.8467,476.0
46.8801,537.0
46.9135,528.0
46.9469,550.0
46.9803,510.0
47.0138,528.0
47.0472,499.0
47.0806,551.0
47.114,470.0
47.1475,487.0
47.1809,541.0
47.2143,498.0
47.2477,476.0
47.2811,517.0
47.3146,482.0
47.348,521.0
47.3814,516.0
47.4148,515.0
47.4483,560.0
47.4817,515.0
47.5151,513.0
47.5485,561.0
47.5819,544.0
47.6154,533.0
47.6488,505.0
47.6822,525.0
47.7156,511.0
47.7491,542.0
47.7825,543.0
47.8159,497.0
47.8493,550.0
47.8828,547.0
47.9162,554.0
47.9496,545.0
47.983,530.0
48.0164,515.0
48.0499,541.0
48.0833,512.0
48.1167,510.0
48.1501,553.0
48.1836,521.0
48.217,514.0
48.2504,598.0
48.2838,530.0
48.3172,578.0
48.3507,569.0
48.3841,570.0
48.4175,583.0
48.4509,617.0
48.4844,575.0
48.5178,603.0
48.5512,623.0
48.5846,636.0
48.618,664.0
48.6515,749.0
48.6849,743.0
48.7183,755.0
48.7517,815.0
48.7852,866.0
48.8186,943.0
48.852,1002.0
48.8854,1098.0
48.9189,1274.0
48.9523,1415.0
48.9857,1627.0
49.0191,1886.0
49.0525,2000.0
49.086,2013.0
49.1194,1780.0
49.1528,1662.0
49.1862,1516.0
49.2197,1404.0
49.2531,1158.0
49.2865,1020.0
49.3199,949.0
49.3533,859.0
49.3868,762.0
49.4202,755.0
49.4536,753.0
49.487,671.0
49.5205,655.0
49.5539,673.0
49.5873,613.0
49.6207,647.0
49.6541,553.0
49.6876,574.0
49.721,586.0
49.7544,542.0
49.7878,515.0
49.8213,468.0
49.8547,506.0
49.8881,501.0
49.9215,469.0
49.9549,516.0
49.9884,478.0
50.0218,470.0
50.0552,497.0
50.0886,475.0
50.1221,463.0
50.1555,499.0
50.1889,493.0
50.2223,495.0
50.2558,477.0
50.2892,447.0
50.3226,449.0
50.356,441.0
50.3894,434.0
50.4229,449.0
50.4563,480.0
50.4897,475.0
50.5231,457.0
50.5566,454.0
50.59,447.0
50.6234,415.0
50.6568,481.0
50.6902,428.0
50.7237,395.0
50.7571,423.0
50.7905,428.0
50.8239,402.0
50.8574,484.0
50.8908,441.0
50.9242,426.0
50.9576,441.0
50.991,441.0
51.0245,398.0
51.0579,415.0
51.0913,450.0
51.1247,411.0
51.1582,380.0
51.1916,409.0
51.225,414.0
51.2584,412.0
51.2919,436.0
51.3253,410.0
51.3587,428.0
51.3921,428.0
51.4255,397.0
51.459,421.0
51.4924,432.0
51.5258,395.0
51.5592,420.0
51.5927,378.0
51.6261,423.0
51.6595,441.0
51.6929,431.0
51.7263,413.0
51.7598,447.0
51.7932,462.0
51.8266,427.0
51.86,458.0
51.8935,447.0
51.9269,427.0
51.9603,467.0
51.9937,413.0
52.0271,401.0
52.0606,404.0
52.094,446.0
52.1274,385.0
52.1608,400.0
52.1943,402.0
52.2277,428.0
52.2611,401.0
52.2945,428.0
52.3279,412.0
52.3614,401.0
52.3948,405.0
52.4282,417.0
52.4616,449.0
52.4951,378.0
52.5285,419.0
52.5619,440.0
52.5953,452.0
52.6288,489.0
52.6622,443.0
52.6956,527.0
52.729,511.0
52.7624,558.0
52.7959,546.0
52.8293,578.0
52.8627,608.0
52.8961,717.0
52.9296,790.0
52.963,802.0
52.9964,810.0
53.0298,857.0
53.0632,846.0
53.0967,906.0
53.1301,865.0
53.1635,873.0
53.1969,740.0
53.2304,682.0
53.2638,635.0
53.2972,635.0
53.3306,578.0
53.364,539.0
53.3975,510.0
53.4309,485.0
53.4643,446.0
53.4977,448.0
53.5312,480.0
53.5646,466.0
53.598,452.0
53.6314,457.0
53.6649,487.0
53.6983,472.0
53.7317,451.0
53.7651,526.0
53.7985,506.0
53.832,519.0
53.8654,525.0
53.8988,539.0
53.9322,547.0
53.9657,635.0
53.9991,604.0
54.0325,579.0
54.0659,657.0
54.0993,719.0
54.1328,755.0
54.1662,720.0
54.1996,744.0
54.233,826.0
54.2665,872.0
54.2999,905.0
54.3333,952.0
54.3667,978.0
54.4001,916.0
54.4336,935.0
54.467,978.0
54.5004,988.0
54.5338,932.0
54.5673,932.0
54.6007,949.0
54.6341,894.0
54.6675,885.0
54.701,944.0
54.7344,996.0
54.7678,950.0
54.8012,950.0
54.8346,930.0
54.8681,1034.0
54.9015,1000.0
54.9349,1007.0
54.9683,1046.0
55.0018,1029.0
55.0352,1087.0
55.0686,974.0
55.102,903.0
55.1354,985.0
55.1689,878.0
55.2023,806.0
55.2357,841.0
55.2691,804.0
55.3026,829.0
55.336,899.0
55.3694,944.0
55.4028,1026.0
55.4362,1033.0
55.4697,1029.0
55.5031,1020.0
55.5365,1043.0
55.5699,1006.0
55.6034,920.0
55.6368,808.0
55.6702,746.0
55.7036,674.0
55.737,635.0
55.7705,621.0
55.8039,573.0
55.8373,516.0
55.8707,544.0
55.9042,544.0
55.9376,566.0
55.971,568.0
56.0044,588.0
56.0379,608.0
56.0713,598.0
56.1047,589.0
56.1381,591.0
56.1715,592.0
56.205,620.0
56.2384,582.0
56.2718,693.0
56.3052,648.0
56.3387,608.0
56.3721,623.0
56.4055,591.0
56.4389,553.0
56.4723,583.0
56.5058,546.0
56.5392,531.0
56.5726,498.0
56.606,488.0
56.6395,541.0
56.6729,487.0
56.7063,508.0
56.7397,478.0
56.7731,523.0
56.8066,496.0
56.84,576.0
56.8734,632.0
56.9068,657.0
56.9403,698.0
56.9737,742.0
57.0071,765.0
57.0405,681.0
57.074,650.0
57.1074,597.0
57.1408,704.0
57.1742,614.0
57.2076,564.0
57.2411,474.0
57.2745,433.0
57.3079,425.0
57.3413,407.0
57.3748,422.0
57.4082,382.0
57.4416,355.0
57.475,389.0
57.5084,383.0
57.5419,323.0
57.5753,339.0
57.6087,354.0
57.6421,324.0
57.6756,328.0
57.709,341.0
57.7424,324.0
57.7758,323.0
57.8092,341.0
57.8427,359.0
57.8761,339.0
57.9095,368.0
57.9429,330.0
57.9764,348.0
58.0098,318.0
58.0432,338.0
58.0766,350.0
58.11,354.0
58.1435,318.0
58.1769,331.0
58.2103,330.0
58.2437,349.0
58.2772,318.0
58.3106,369.0
58.344,319.0
58.3774,349.0
58.4109,368.0
58.4443,364.0
58.4777,344.0
58.5111,344.0
58.5445,337.0
58.578,334.0
58.6114,364.0
58.6448,350.0
58.6782,367.0
58.7117,356.0
58.7451,359.0
58.7785,344.0
58.8119,357.0
58.8453,376.0
58.8788,396.0
58.9122,390.0
58.9456,378.0
58.979,383.0
59.0125,369.0
59.0459,400.0
59.0793,443.0
59.1127,394.0
59.1461,447.0
59.1796,438.0
59.213,445.0
59.2464,481.0
59.2798,475.0
59.3133,440.0
59.3467,461.0
59.3801,448.0
59.4135,425.0
59.447,421.0
59.4804,405.0
59.5138,418.0
59.5472,371.0
59.5806,385.0
59.6141,313.0
59.6475,357.0
59.6809,327.0
59.7143,305.0
59.7478,313.0
59.7812,357.0
59.8146,334.0
59.848,301.0
59.8814,286.0
59.9149,370.0
59.9483,347.0
59.9817,302.0
60.0151,306.0
60.0486,325.0
60.082,296.0
60.1154,352.0
60.1488,333.0
60.1822,337.0
60.2157,333.0
60.2491,309.0
60.2825,332.0
60.3159,306.0
60.3494,348.0
60.3828,294.0
60.4162,363.0
60.4496,351.0
60.483,312.0
60.5165,320.0
60.5499,306.0
60.5833,304.0
60.6167,315.0
60.6502,318.0
60.6836,296.0
60.717,360.0
60.7504,354.0
60.7839,292.0
60.8173,319.0
60.8507,357.0
60.8841,308.0
60.9175,328.0
60.951,312.0
60.9844,316.0
61.0178,343.0
61.0512,337.0
61.0847,355.0
61.1181,347.0
61.1515,358.0
61.1849,390.0
61.2183,379.0
61.2518,356.0
61.2852,365.0
61.3186,380.0
61.352,387.0
61.3855,417.0
61.4189,402.0
61.4523,380.0
61.4857,461.0
61.5191,461.0
61.5526,441.0
61.586,470.0
61.6194,443.0
61.6528,433.0
61.6863,427.0
61.7197,412.0
61.7531,414.0
61.7865,429.0
61.82,456.0
61.8534,397.0
61.8868,407.0
61.9202,421.0
61.9536,427.0
61.9871,425.0
62.0205,352.0
62.0539,468.0
62.0873,401.0
62.1208,413.0
62.1542,401.0
62.1876,436.0
62.221,453.0
62.2544,441.0
62.2879,462.0
62.3213,477.0
62.3547,462.0
62.3881,446.0
62.4216,479.0
62.455,498.0
62.4884,442.0
62.5218,456.0
62.5552,488.0
62.5887,468.0
62.6221,416.0
62.6555,476.0
62.6889,451.0
62.7224,434.0
62.7558,431.0
62.7892,403.0
62.8226,374.0
62.856,395.0
62.8895,365.0
62.9229,383.0
62.9563,388.0
62.9897,351.0
63.0232,341.0
63.0566,348.0
63.09,358.0
63.1234,355.0
63.1569,311.0
63.1903,339.0
63.2237,318.0
63.2571,310.0
63.2905,317.0
63.324,318.0
63.3574,326.0
63.3908,311.0
63.4242,277.0
63.4577,353.0
63.4911,330.0
63.5245,300.0
63.5579,302.0
63.5913,324.0
63.6248,351.0
63.6582,316.0
63.6916,311.0
63.725,354.0
63.7585,418.0
63.7919,384.0
63.8253,415.0
63.8587,400.0
63.8921,444.0
63.9256,458.0
63.959,485.0
63.9924,520.0
64.0258,554.0
64.0593,536.0
64.0927,609.0
64.1261,664.0
64.1595,680.0
64.193,625.0
64.2264,621.0
64.2598,543.0
64.2932,551.0
64.3266,539.0
64.3601,478.0
64.3935,487.0
64.4269,419.0
64.4603,395.0
64.4938,326.0
64.5272,338.0
64.5606,308.0
64.594,317.0
64.6274,274.0
64.6609,284.0
64.6943,281.0
64.7277,263.0
64.7611,266.0
64.7946,265.0
64.828,297.0
64.8614,288.0
64.8948,293.0
64.9282,246.0
64.9617,310.0
64.9951,281.0
65.0285,283.0
65.0619,278.0
65.0954,274.0
65.1288,296.0
65.1622,287.0
65.1956,286.0
65.229,269.0
65.2625,272.0
65.2959,258.0
65.3293,294.0
65.3627,269.0
65.3962,318.0
65.4296,297.0
65.463,295.0
65.4964,278.0
65.5299,290.0
65.5633,289.0
65.5967,243.0
65.6301,271.0
65.6635,245.0
65.697,273.0
65.7304,261.0
65.7638,248.0
65.7972,263.0
65.8307,255.0
65.8641,281.0
65.8975,261.0
65.9309,253.0
65.9643,272.0
65.9978,286.0
66.0312,272.0
66.0646,258.0
66.098,229.0
66.1315,278.0
66.1649,285.0
66.1983,270.0
66.2317,246.0
66.2651,246.0
66.2986,245.0
66.332,284.0
66.3654,246.0
66.3988,266.0
66.4323,266.0
66.4657,229.0
66.4991,268.0
66.5325,252.0
66.566,257.0
66.5994,249.0
66.6328,246.0
66.6662,233.0
66.6996,257.0
66.7331,228.0
66.7665,238.0
66.7999,258.0
66.8333,299.0
66.8668,248.0
66.9002,246.0
66.9336,239.0
66.967,241.0
67.0004,232.0
67.0339,240.0
67.0673,254.0
67.1007,253.0
67.1341,226.0
67.1676,262.0
67.201,250.0
67.2344,241.0
67.2678,266.0
67.3012,247.0
67.3347,253.0
67.3681,263.0
67.4015,238.0
67.4349,271.0
67.4684,225.0
67.5018,270.0
67.5352,243.0
67.5686,257.0
67.602,256.0
67.6355,270.0
67.6689,245.0
67.7023,241.0
67.7357,268.0
67.7692,255.0
67.8026,244.0
67.836,268.0
67.8694,270.0
67.9029,238.0
67.9363,257.0
67.9697,283.0
68.0031,259.0
68.0365,248.0
68.07,259.0
68.1034,249.0
68.1368,255.0
68.1702,243.0
68.2037,238.0
68.2371,249.0
68.2705,241.0
68.3039,249.0
68.3373,246.0
68.3708,253.0
68.4042,268.0
68.4376,228.0
68.471,254.0
68.5045,261.0
68.5379,228.0
68.5713,228.0
68.6047,280.0
68.6381,240.0
68.6716,257.0
68.705,245.0
68.7384,273.0
68.7718,224.0
68.8053,257.0
68.8387,232.0
68.8721,246.0
68.9055,254.0
68.939,255.0
68.9724,252.0
69.0058,249.0
69.0392,279.0
69.0726,272.0
69.1061,259.0
69.1395,234.0
69.1729,287.0
69.2063,256.0
69.2398,307.0
69.2732,258.0
69.3066,260.0
69.34,295.0
69.3734,244.0
69.4069,278.0
69.4403,294.0
69.4737,312.0
69.5071,296.0
69.5406,269.0
69.574,295.0
69.6074,287.0
69.6408,318.0
69.6742,312.0
69.7077,324.0
69.7411,333.0
69.7745,353.0
69.8079,334.0
69.8414,339.0
69.8748,334.0
69.9082,353.0
69.9416,320.0
69.975,349.0
69.9918,365.0