File: herald_visualization/Delia_Scripts/VF4_1to1_KS6Lgraphite/VF4_1to1_KS6Lgraphite_raw/240920-VF4_1to1_KS6Lgraphite-100min_milled-20-70deg_40min.csv
2Theta,Intensity
20.0084,3426.0
20.0418,3385.0
20.0752,3282.0
20.1086,3278.0
20.142,3348.0
20.1755,3249.0
20.2089,3172.0
20.2423,3159.0
20.2757,3324.0
20.3092,3196.0
20.3426,3203.0
20.376,3218.0
20.4094,3274.0
20.4428,3105.0
20.4763,3118.0
20.5097,3107.0
20.5431,3191.0
20.5765,3065.0
20.61,3103.0
20.6434,3143.0
20.6768,3123.0
20.7102,3040.0
20.7437,3044.0
20.7771,2949.0
20.8105,3075.0
20.8439,3092.0
20.8773,2964.0
20.9108,2928.0
20.9442,2951.0
20.9776,2950.0
21.011,2919.0
21.0445,3026.0
21.0779,2891.0
21.1113,2949.0
21.1447,2879.0
21.1781,2872.0
21.2116,2893.0
21.245,2829.0
21.2784,2903.0
21.3118,2740.0
21.3453,2871.0
21.3787,2803.0
21.4121,2832.0
21.4455,2807.0
21.4789,2691.0
21.5124,2745.0
21.5458,2829.0
21.5792,2840.0
21.6126,2642.0
21.6461,2664.0
21.6795,2775.0
21.7129,2760.0
21.7463,2671.0
21.7798,2637.0
21.8132,2679.0
21.8466,2611.0
21.88,2626.0
21.9134,2615.0
21.9469,2613.0
21.9803,2675.0
22.0137,2624.0
22.0471,2536.0
22.0806,2593.0
22.114,2574.0
22.1474,2619.0
22.1808,2537.0
22.2142,2596.0
22.2477,2606.0
22.2811,2473.0
22.3145,2534.0
22.3479,2518.0
22.3814,2584.0
22.4148,2534.0
22.4482,2570.0
22.4816,2455.0
22.515,2577.0
22.5485,2506.0
22.5819,2517.0
22.6153,2523.0
22.6487,2543.0
22.6822,2455.0
22.7156,2563.0
22.749,2533.0
22.7824,2559.0
22.8158,2488.0
22.8493,2504.0
22.8827,2638.0
22.9161,2603.0
22.9495,2646.0
22.983,2678.0
23.0164,2645.0
23.0498,2770.0
23.0832,2770.0
23.1167,2781.0
23.1501,2848.0
23.1835,2899.0
23.2169,3136.0
23.2503,3064.0
23.2838,3212.0
23.3172,3367.0
23.3506,3358.0
23.384,3665.0
23.4175,3786.0
23.4509,4093.0
23.4843,4169.0
23.5177,4636.0
23.5511,4958.0
23.5846,5300.0
23.618,5641.0
23.6514,6154.0
23.6848,6398.0
23.7183,7010.0
23.7517,7316.0
23.7851,7588.0
23.8185,7730.0
23.8519,7623.0
23.8854,7583.0
23.9188,7231.0
23.9522,7056.0
23.9856,6641.0
24.0191,6156.0
24.0525,5682.0
24.0859,5341.0
24.1193,5064.0
24.1528,4651.0
24.1862,4408.0
24.2196,4089.0
24.253,3767.0
24.2864,3567.0
24.3199,3415.0
24.3533,3281.0
24.3867,2992.0
24.4201,2898.0
24.4536,2851.0
24.487,2711.0
24.5204,2596.0
24.5538,2578.0
24.5872,2477.0
24.6207,2463.0
24.6541,2319.0
24.6875,2294.0
24.7209,2270.0
24.7544,2301.0
24.7878,2194.0
24.8212,2209.0
24.8546,2157.0
24.888,2119.0
24.9215,2115.0
24.9549,2066.0
24.9883,2025.0
25.0217,1940.0
25.0552,1976.0
25.0886,2044.0
25.122,1940.0
25.1554,1907.0
25.1888,1893.0
25.2223,1931.0
25.2557,1871.0
25.2891,1844.0
25.3225,1819.0
25.356,1910.0
25.3894,1884.0
25.4228,1834.0
25.4562,1850.0
25.4897,1871.0
25.5231,1767.0
25.5565,1782.0
25.5899,1789.0
25.6233,1795.0
25.6568,1760.0
25.6902,1774.0
25.7236,1793.0
25.757,1739.0
25.7905,1781.0
25.8239,1758.0
25.8573,1757.0
25.8907,1739.0
25.9241,1684.0
25.9576,1661.0
25.991,1800.0
26.0244,1708.0
26.0578,1679.0
26.0913,1670.0
26.1247,1716.0
26.1581,1731.0
26.1915,1742.0
26.2249,1675.0
26.2584,1642.0
26.2918,1668.0
26.3252,1715.0
26.3586,1668.0
26.3921,1669.0
26.4255,1695.0
26.4589,1646.0
26.4923,1541.0
26.5258,1587.0
26.5592,1653.0
26.5926,1564.0
26.626,1606.0
26.6594,1567.0
26.6929,1640.0
26.7263,1551.0
26.7597,1545.0
26.7931,1617.0
26.8266,1592.0
26.86,1519.0
26.8934,1616.0
26.9268,1577.0
26.9602,1540.0
26.9937,1623.0
27.0271,1514.0
27.0605,1556.0
27.0939,1599.0
27.1274,1577.0
27.1608,1584.0
27.1942,1585.0
27.2276,1606.0
27.261,1515.0
27.2945,1538.0
27.3279,1456.0
27.3613,1565.0
27.3947,1481.0
27.4282,1598.0
27.4616,1509.0
27.495,1464.0
27.5284,1500.0
27.5618,1484.0
27.5953,1542.0
27.6287,1527.0
27.6621,1529.0
27.6955,1510.0
27.729,1488.0
27.7624,1470.0
27.7958,1427.0
27.8292,1531.0
27.8627,1431.0
27.8961,1509.0
27.9295,1439.0
27.9629,1405.0
27.9963,1463.0
28.0298,1381.0
28.0632,1443.0
28.0966,1343.0
28.13,1401.0
28.1635,1448.0
28.1969,1456.0
28.2303,1356.0
28.2637,1401.0
28.2971,1375.0
28.3306,1400.0
28.364,1355.0
28.3974,1379.0
28.4308,1359.0
28.4643,1371.0
28.4977,1304.0
28.5311,1440.0
28.5645,1352.0
28.5979,1369.0
28.6314,1299.0
28.6648,1377.0
28.6982,1371.0
28.7316,1328.0
28.7651,1365.0
28.7985,1340.0
28.8319,1282.0
28.8653,1371.0
28.8988,1327.0
28.9322,1297.0
28.9656,1306.0
28.999,1334.0
29.0324,1297.0
29.0659,1259.0
29.0993,1300.0
29.1327,1294.0
29.1661,1292.0
29.1996,1318.0
29.233,1343.0
29.2664,1253.0
29.2998,1296.0
29.3332,1302.0
29.3667,1255.0
29.4001,1210.0
29.4335,1220.0
29.4669,1238.0
29.5004,1265.0
29.5338,1263.0
29.5672,1257.0
29.6006,1260.0
29.634,1255.0
29.6675,1214.0
29.7009,1249.0
29.7343,1248.0
29.7677,1158.0
29.8012,1246.0
29.8346,1187.0
29.868,1241.0
29.9014,1185.0
29.9348,1164.0
29.9683,1153.0
30.0017,1199.0
30.0351,1200.0
30.0685,1205.0
30.102,1185.0
30.1354,1188.0
30.1688,1139.0
30.2022,1228.0
30.2357,1150.0
30.2691,1147.0
30.3025,1157.0
30.3359,1106.0
30.3693,1222.0
30.4028,1149.0
30.4362,1160.0
30.4696,1147.0
30.503,1091.0
30.5365,1144.0
30.5699,1164.0
30.6033,1156.0
30.6367,1134.0
30.6701,1129.0
30.7036,1109.0
30.737,1114.0
30.7704,1112.0
30.8038,1087.0
30.8373,1074.0
30.8707,1049.0
30.9041,1095.0
30.9375,1101.0
30.9709,1090.0
31.0044,1132.0
31.0378,1180.0
31.0712,1107.0
31.1046,1129.0
31.1381,1109.0
31.1715,1062.0
31.2049,1059.0
31.2383,1076.0
31.2718,1056.0
31.3052,1095.0
31.3386,1081.0
31.372,1113.0
31.4054,1076.0
31.4389,1096.0
31.4723,1085.0
31.5057,1022.0
31.5391,1098.0
31.5726,1016.0
31.606,1055.0
31.6394,1096.0
31.6728,1011.0
31.7062,1069.0
31.7397,1015.0
31.7731,1004.0
31.8065,1043.0
31.8399,1013.0
31.8734,1024.0
31.9068,1034.0
31.9402,1080.0
31.9736,1035.0
32.007,1061.0
32.0405,1082.0
32.0739,1093.0
32.1073,1028.0
32.1407,1088.0
32.1742,1001.0
32.2076,985.0
32.241,1091.0
32.2744,1025.0
32.3078,1111.0
32.3413,1049.0
32.3747,1069.0
32.4081,1053.0
32.4415,1118.0
32.475,1051.0
32.5084,1092.0
32.5418,1070.0
32.5752,1086.0
32.6087,1059.0
32.6421,1130.0
32.6755,1116.0
32.7089,1062.0
32.7423,1128.0
32.7758,1164.0
32.8092,1155.0
32.8426,1190.0
32.876,1161.0
32.9095,1188.0
32.9429,1223.0
32.9763,1187.0
33.0097,1289.0
33.0431,1262.0
33.0766,1339.0
33.11,1316.0
33.1434,1376.0
33.1768,1421.0
33.2103,1441.0
33.2437,1376.0
33.2771,1495.0
33.3105,1513.0
33.3439,1467.0
33.3774,1520.0
33.4108,1504.0
33.4442,1502.0
33.4776,1437.0
33.5111,1394.0
33.5445,1427.0
33.5779,1433.0
33.6113,1317.0
33.6448,1198.0
33.6782,1297.0
33.7116,1290.0
33.745,1269.0
33.7784,1261.0
33.8119,1121.0
33.8453,1191.0
33.8787,1119.0
33.9121,1153.0
33.9456,1156.0
33.979,1170.0
34.0124,1140.0
34.0458,1175.0
34.0792,1107.0
34.1127,1086.0
34.1461,1111.0
34.1795,1092.0
34.2129,1007.0
34.2464,1098.0
34.2798,1085.0
34.3132,1103.0
34.3466,1094.0
34.38,1101.0
34.4135,1106.0
34.4469,1041.0
34.4803,1063.0
34.5137,1144.0
34.5472,1090.0
34.5806,1029.0
34.614,1045.0
34.6474,1019.0
34.6808,1124.0
34.7143,962.0
34.7477,1050.0
34.7811,995.0
34.8145,977.0
34.848,976.0
34.8814,907.0
34.9148,967.0
34.9482,935.0
34.9817,980.0
35.0151,937.0
35.0485,934.0
35.0819,925.0
35.1153,907.0
35.1488,901.0
35.1822,932.0
35.2156,912.0
35.249,861.0
35.2825,860.0
35.3159,885.0
35.3493,907.0
35.3827,865.0
35.4161,908.0
35.4496,867.0
35.483,819.0
35.5164,795.0
35.5498,811.0
35.5833,824.0
35.6167,794.0
35.6501,787.0
35.6835,777.0
35.7169,799.0
35.7504,777.0
35.7838,829.0
35.8172,776.0
35.8506,787.0
35.8841,804.0
35.9175,778.0
35.9509,788.0
35.9843,739.0
36.0178,771.0
36.0512,835.0
36.0846,839.0
36.118,814.0
36.1514,766.0
36.1849,788.0
36.2183,764.0
36.2517,699.0
36.2851,751.0
36.3186,755.0
36.352,719.0
36.3854,749.0
36.4188,788.0
36.4522,717.0
36.4857,739.0
36.5191,716.0
36.5525,779.0
36.5859,748.0
36.6194,723.0
36.6528,732.0
36.6862,789.0
36.7196,755.0
36.753,756.0
36.7865,756.0
36.8199,762.0
36.8533,750.0
36.8867,740.0
36.9202,697.0
36.9536,766.0
36.987,725.0
37.0204,737.0
37.0538,751.0
37.0873,713.0
37.1207,789.0
37.1541,734.0
37.1875,714.0
37.221,733.0
37.2544,702.0
37.2878,712.0
37.3212,701.0
37.3547,704.0
37.3881,725.0
37.4215,732.0
37.4549,670.0
37.4883,727.0
37.5218,717.0
37.5552,688.0
37.5886,711.0
37.622,656.0
37.6555,728.0
37.6889,674.0
37.7223,673.0
37.7557,716.0
37.7891,663.0
37.8226,711.0
37.856,725.0
37.8894,684.0
37.9228,671.0
37.9563,731.0
37.9897,731.0
38.0231,702.0
38.0565,698.0
38.0899,726.0
38.1234,694.0
38.1568,660.0
38.1902,718.0
38.2236,678.0
38.2571,681.0
38.2905,736.0
38.3239,661.0
38.3573,687.0
38.3908,680.0
38.4242,682.0
38.4576,729.0
38.491,698.0
38.5244,665.0
38.5579,676.0
38.5913,667.0
38.6247,687.0
38.6581,720.0
38.6916,664.0
38.725,718.0
38.7584,694.0
38.7918,707.0
38.8252,697.0
38.8587,743.0
38.8921,693.0
38.9255,759.0
38.9589,677.0
38.9924,703.0
39.0258,724.0
39.0592,718.0
39.0926,719.0
39.126,728.0
39.1595,725.0
39.1929,773.0
39.2263,748.0
39.2597,806.0
39.2932,765.0
39.3266,780.0
39.36,751.0
39.3934,792.0
39.4269,710.0
39.4603,810.0
39.4937,758.0
39.5271,829.0
39.5605,819.0
39.594,820.0
39.6274,842.0
39.6608,884.0
39.6942,885.0
39.7277,965.0
39.7611,900.0
39.7945,964.0
39.8279,997.0
39.8613,974.0
39.8948,1006.0
39.9282,1063.0
39.9616,1073.0
39.995,1138.0
40.0285,1109.0
40.0619,1211.0
40.0953,1202.0
40.1287,1219.0
40.1621,1289.0
40.1956,1296.0
40.229,1238.0
40.2624,1332.0
40.2958,1307.0
40.3293,1284.0
40.3627,1343.0
40.3961,1317.0
40.4295,1227.0
40.4629,1287.0
40.4964,1267.0
40.5298,1302.0
40.5632,1141.0
40.5966,1171.0
40.6301,1078.0
40.6635,1029.0
40.6969,990.0
40.7303,998.0
40.7638,990.0
40.7972,937.0
40.8306,923.0
40.864,897.0
40.8974,889.0
40.9309,878.0
40.9643,862.0
40.9977,782.0
41.0311,841.0
41.0646,781.0
41.098,781.0
41.1314,730.0
41.1648,794.0
41.1982,735.0
41.2317,735.0
41.2651,715.0
41.2985,723.0
41.3319,707.0
41.3654,701.0
41.3988,725.0
41.4322,683.0
41.4656,699.0
41.499,662.0
41.5325,688.0
41.5659,650.0
41.5993,665.0
41.6327,655.0
41.6662,655.0
41.6996,649.0
41.733,650.0
41.7664,648.0
41.7999,655.0
41.8333,619.0
41.8667,621.0
41.9001,656.0
41.9335,631.0
41.967,660.0
42.0004,660.0
42.0338,660.0
42.0672,668.0
42.1007,666.0
42.1341,639.0
42.1675,622.0
42.2009,654.0
42.2343,658.0
42.2678,623.0
42.3012,665.0
42.3346,655.0
42.368,639.0
42.4015,653.0
42.4349,666.0
42.4683,648.0
42.5017,658.0
42.5351,616.0
42.5686,621.0
42.602,611.0
42.6354,619.0
42.6688,614.0
42.7023,649.0
42.7357,598.0
42.7691,632.0
42.8025,692.0
42.8359,623.0
42.8694,604.0
42.9028,611.0
42.9362,626.0
42.9696,639.0
43.0031,608.0
43.0365,556.0
43.0699,570.0
43.1033,625.0
43.1368,598.0
43.1702,607.0
43.2036,623.0
43.237,607.0
43.2704,599.0
43.3039,595.0
43.3373,578.0
43.3707,632.0
43.4041,542.0
43.4376,655.0
43.471,597.0
43.5044,548.0
43.5378,584.0
43.5712,619.0
43.6047,600.0
43.6381,582.0
43.6715,605.0
43.7049,577.0
43.7384,556.0
43.7718,579.0
43.8052,582.0
43.8386,531.0
43.872,555.0
43.9055,604.0
43.9389,531.0
43.9723,573.0
44.0057,525.0
44.0392,553.0
44.0726,559.0
44.106,554.0
44.1394,535.0
44.1729,575.0
44.2063,578.0
44.2397,578.0
44.2731,494.0
44.3065,582.0
44.34,529.0
44.3734,594.0
44.4068,568.0
44.4402,551.0
44.4737,528.0
44.5071,561.0
44.5405,544.0
44.5739,533.0
44.6073,568.0
44.6408,501.0
44.6742,551.0
44.7076,513.0
44.741,545.0
44.7745,531.0
44.8079,554.0
44.8413,506.0
44.8747,491.0
44.9081,521.0
44.9416,529.0
44.975,507.0
45.0084,570.0
45.0418,507.0
45.0753,504.0
45.1087,547.0
45.1421,511.0
45.1755,500.0
45.2089,522.0
45.2424,496.0
45.2758,555.0
45.3092,564.0
45.3426,481.0
45.3761,532.0
45.4095,489.0
45.4429,501.0
45.4763,517.0
45.5098,524.0
45.5432,510.0
45.5766,528.0
45.61,508.0
45.6434,522.0
45.6769,498.0
45.7103,485.0
45.7437,483.0
45.7771,457.0
45.8106,490.0
45.844,504.0
45.8774,512.0
45.9108,522.0
45.9442,508.0
45.9777,458.0
46.0111,544.0
46.0445,493.0
46.0779,485.0
46.1114,513.0
46.1448,482.0
46.1782,506.0
46.2116,503.0
46.245,494.0
46.2785,465.0
46.3119,462.0
46.3453,513.0
46.3787,524.0
46.4122,497.0
46.4456,493.0
46.479,498.0
46.5124,509.0
46.5459,480.0
46.5793,473.0
46.6127,443.0
46.6461,482.0
46.6795,483.0
46.713,426.0
46.7464,533.0
46.7798,491.0
46.8132,495.0
46.8467,495.0
46.8801,498.0
46.9135,472.0
46.9469,524.0
46.9803,555.0
47.0138,482.0
47.0472,489.0
47.0806,507.0
47.114,519.0
47.1475,527.0
47.1809,513.0
47.2143,520.0
47.2477,517.0
47.2811,481.0
47.3146,537.0
47.348,526.0
47.3814,522.0
47.4148,504.0
47.4483,514.0
47.4817,523.0
47.5151,487.0
47.5485,511.0
47.5819,500.0
47.6154,539.0
47.6488,537.0
47.6822,506.0
47.7156,527.0
47.7491,573.0
47.7825,588.0
47.8159,566.0
47.8493,546.0
47.8828,575.0
47.9162,566.0
47.9496,616.0
47.983,610.0
48.0164,615.0
48.0499,600.0
48.0833,647.0
48.1167,642.0
48.1501,624.0
48.1836,695.0
48.217,661.0
48.2504,697.0
48.2838,650.0
48.3172,800.0
48.3507,831.0
48.3841,774.0
48.4175,846.0
48.4509,892.0
48.4844,916.0
48.5178,947.0
48.5512,1028.0
48.5846,1079.0
48.618,1110.0
48.6515,1080.0
48.6849,1192.0
48.7183,1251.0
48.7517,1180.0
48.7852,1279.0
48.8186,1309.0
48.852,1228.0
48.8854,1371.0
48.9189,1289.0
48.9523,1285.0
48.9857,1199.0
49.0191,1160.0
49.0525,1187.0
49.086,1119.0
49.1194,1118.0
49.1528,1045.0
49.1862,933.0
49.2197,936.0
49.2531,886.0
49.2865,842.0
49.3199,813.0
49.3533,846.0
49.3868,747.0
49.4202,715.0
49.4536,713.0
49.487,673.0
49.5205,656.0
49.5539,569.0
49.5873,636.0
49.6207,614.0
49.6541,541.0
49.6876,590.0
49.721,577.0
49.7544,537.0
49.7878,530.0
49.8213,501.0
49.8547,536.0
49.8881,508.0
49.9215,465.0
49.9549,515.0
49.9884,541.0
50.0218,500.0
50.0552,497.0
50.0886,508.0
50.1221,432.0
50.1555,473.0
50.1889,446.0
50.2223,458.0
50.2558,494.0
50.2892,467.0
50.3226,434.0
50.356,479.0
50.3894,452.0
50.4229,470.0
50.4563,438.0
50.4897,434.0
50.5231,442.0
50.5566,407.0
50.59,386.0
50.6234,452.0
50.6568,442.0
50.6902,449.0
50.7237,406.0
50.7571,430.0
50.7905,421.0
50.8239,431.0
50.8574,456.0
50.8908,409.0
50.9242,447.0
50.9576,444.0
50.991,473.0
51.0245,389.0
51.0579,442.0
51.0913,385.0
51.1247,407.0
51.1582,414.0
51.1916,433.0
51.225,405.0
51.2584,420.0
51.2919,395.0
51.3253,423.0
51.3587,427.0
51.3921,394.0
51.4255,383.0
51.459,421.0
51.4924,417.0
51.5258,429.0
51.5592,427.0
51.5927,423.0
51.6261,372.0
51.6595,397.0
51.6929,427.0
51.7263,391.0
51.7598,397.0
51.7932,381.0
51.8266,395.0
51.86,429.0
51.8935,376.0
51.9269,422.0
51.9603,398.0
51.9937,403.0
52.0271,446.0
52.0606,413.0
52.094,421.0
52.1274,465.0
52.1608,396.0
52.1943,421.0
52.2277,421.0
52.2611,470.0
52.2945,388.0
52.3279,428.0
52.3614,435.0
52.3948,406.0
52.4282,453.0
52.4616,446.0
52.4951,437.0
52.5285,418.0
52.5619,482.0
52.5953,432.0
52.6288,442.0
52.6622,468.0
52.6956,474.0
52.729,429.0
52.7624,490.0
52.7959,459.0
52.8293,450.0
52.8627,472.0
52.8961,479.0
52.9296,438.0
52.963,464.0
52.9964,501.0
53.0298,466.0
53.0632,483.0
53.0967,483.0
53.1301,511.0
53.1635,550.0
53.1969,524.0
53.2304,513.0
53.2638,532.0
53.2972,605.0
53.3306,533.0
53.364,573.0
53.3975,607.0
53.4309,588.0
53.4643,587.0
53.4977,599.0
53.5312,577.0
53.5646,630.0
53.598,686.0
53.6314,705.0
53.6649,752.0
53.6983,755.0
53.7317,746.0
53.7651,809.0
53.7985,839.0
53.832,858.0
53.8654,889.0
53.8988,892.0
53.9322,962.0
53.9657,1035.0
53.9991,1082.0
54.0325,1117.0
54.0659,1100.0
54.0993,1134.0
54.1328,1228.0
54.1662,1268.0
54.1996,1252.0
54.233,1206.0
54.2665,1274.0
54.2999,1227.0
54.3333,1236.0
54.3667,1233.0
54.4001,1149.0
54.4336,1116.0
54.467,1112.0
54.5004,1084.0
54.5338,1100.0
54.5673,1046.0
54.6007,1035.0
54.6341,1027.0
54.6675,1002.0
54.701,896.0
54.7344,884.0
54.7678,871.0
54.8012,853.0
54.8346,843.0
54.8681,811.0
54.9015,780.0
54.9349,849.0
54.9683,804.0
55.0018,733.0
55.0352,768.0
55.0686,740.0
55.102,765.0
55.1354,714.0
55.1689,696.0
55.2023,697.0
55.2357,697.0
55.2691,698.0
55.3026,707.0
55.336,672.0
55.3694,758.0
55.4028,720.0
55.4362,692.0
55.4697,705.0
55.5031,703.0
55.5365,692.0
55.5699,712.0
55.6034,740.0
55.6368,717.0
55.6702,683.0
55.7036,737.0
55.737,727.0
55.7705,704.0
55.8039,758.0
55.8373,763.0
55.8707,715.0
55.9042,758.0
55.9376,696.0
55.971,737.0
56.0044,734.0
56.0379,756.0
56.0713,689.0
56.1047,655.0
56.1381,692.0
56.1715,655.0
56.205,679.0
56.2384,619.0
56.2718,678.0
56.3052,616.0
56.3387,609.0
56.3721,617.0
56.4055,583.0
56.4389,559.0
56.4723,524.0
56.5058,529.0
56.5392,539.0
56.5726,550.0
56.606,467.0
56.6395,512.0
56.6729,487.0
56.7063,474.0
56.7397,496.0
56.7731,509.0
56.8066,479.0
56.84,434.0
56.8734,451.0
56.9068,441.0
56.9403,431.0
56.9737,441.0
57.0071,465.0
57.0405,458.0
57.074,401.0
57.1074,425.0
57.1408,404.0
57.1742,400.0
57.2076,443.0
57.2411,388.0
57.2745,385.0
57.3079,373.0
57.3413,355.0
57.3748,360.0
57.4082,394.0
57.4416,395.0
57.475,388.0
57.5084,387.0
57.5419,430.0
57.5753,404.0
57.6087,366.0
57.6421,360.0
57.6756,395.0
57.709,385.0
57.7424,389.0
57.7758,385.0
57.8092,396.0
57.8427,375.0
57.8761,382.0
57.9095,382.0
57.9429,360.0
57.9764,355.0
58.0098,397.0
58.0432,397.0
58.0766,379.0
58.11,404.0
58.1435,403.0
58.1769,387.0
58.2103,379.0
58.2437,364.0
58.2772,370.0
58.3106,375.0
58.344,428.0
58.3774,413.0
58.4109,397.0
58.4443,402.0
58.4777,399.0
58.5111,414.0
58.5445,422.0
58.578,395.0
58.6114,447.0
58.6448,442.0
58.6782,445.0
58.7117,421.0
58.7451,390.0
58.7785,427.0
58.8119,396.0
58.8453,463.0
58.8788,419.0
58.9122,419.0
58.9456,420.0
58.979,436.0
59.0125,378.0
59.0459,436.0
59.0793,421.0
59.1127,391.0
59.1461,432.0
59.1796,368.0
59.213,407.0
59.2464,379.0
59.2798,406.0
59.3133,402.0
59.3467,355.0
59.3801,355.0
59.4135,355.0
59.447,374.0
59.4804,395.0
59.5138,379.0
59.5472,353.0
59.5806,380.0
59.6141,379.0
59.6475,364.0
59.6809,389.0
59.7143,348.0
59.7478,350.0
59.7812,367.0
59.8146,383.0
59.848,404.0
59.8814,364.0
59.9149,369.0
59.9483,367.0
59.9817,389.0
60.0151,405.0
60.0486,342.0
60.082,364.0
60.1154,368.0
60.1488,388.0
60.1822,360.0
60.2157,402.0
60.2491,393.0
60.2825,409.0
60.3159,376.0
60.3494,397.0
60.3828,400.0
60.4162,397.0
60.4496,430.0
60.483,371.0
60.5165,410.0
60.5499,358.0
60.5833,400.0
60.6167,431.0
60.6502,398.0
60.6836,434.0
60.717,403.0
60.7504,445.0
60.7839,456.0
60.8173,448.0
60.8507,484.0
60.8841,462.0
60.9175,470.0
60.951,444.0
60.9844,482.0
61.0178,519.0
61.0512,489.0
61.0847,505.0
61.1181,481.0
61.1515,503.0
61.1849,530.0
61.2183,543.0
61.2518,529.0
61.2852,550.0
61.3186,547.0
61.352,529.0
61.3855,595.0
61.4189,578.0
61.4523,568.0
61.4857,557.0
61.5191,567.0
61.5526,558.0
61.586,573.0
61.6194,571.0
61.6528,564.0
61.6863,560.0
61.7197,582.0
61.7531,520.0
61.7865,510.0
61.82,572.0
61.8534,578.0
61.8868,566.0
61.9202,545.0
61.9536,491.0
61.9871,542.0
62.0205,556.0
62.0539,482.0
62.0873,536.0
62.1208,563.0
62.1542,540.0
62.1876,609.0
62.221,477.0
62.2544,483.0
62.2879,482.0
62.3213,501.0
62.3547,495.0
62.3881,493.0
62.4216,513.0
62.455,500.0
62.4884,482.0
62.5218,453.0
62.5552,479.0
62.5887,445.0
62.6221,410.0
62.6555,447.0
62.6889,385.0
62.7224,395.0
62.7558,393.0
62.7892,391.0
62.8226,403.0
62.856,390.0
62.8895,391.0
62.9229,375.0
62.9563,407.0
62.9897,382.0
63.0232,440.0
63.0566,350.0
63.09,396.0
63.1234,352.0
63.1569,359.0
63.1903,364.0
63.2237,355.0
63.2571,370.0
63.2905,369.0
63.324,324.0
63.3574,336.0
63.3908,364.0
63.4242,371.0
63.4577,358.0
63.4911,349.0
63.5245,375.0
63.5579,306.0
63.5913,290.0
63.6248,344.0
63.6582,346.0
63.6916,342.0
63.725,306.0
63.7585,316.0
63.7919,323.0
63.8253,317.0
63.8587,289.0
63.8921,320.0
63.9256,286.0
63.959,305.0
63.9924,299.0
64.0258,305.0
64.0593,277.0
64.0927,312.0
64.1261,294.0
64.1595,310.0
64.193,295.0
64.2264,300.0
64.2598,325.0
64.2932,346.0
64.3266,310.0
64.3601,299.0
64.3935,278.0
64.4269,287.0
64.4603,288.0
64.4938,306.0
64.5272,293.0
64.5606,322.0
64.594,319.0
64.6274,283.0
64.6609,311.0
64.6943,297.0
64.7277,304.0
64.7611,303.0
64.7946,285.0
64.828,323.0
64.8614,315.0
64.8948,297.0
64.9282,311.0
64.9617,303.0
64.9951,334.0
65.0285,316.0
65.0619,309.0
65.0954,307.0
65.1288,308.0
65.1622,292.0
65.1956,326.0
65.229,295.0
65.2625,323.0
65.2959,311.0
65.3293,319.0
65.3627,294.0
65.3962,289.0
65.4296,322.0
65.463,299.0
65.4964,296.0
65.5299,290.0
65.5633,303.0
65.5967,289.0
65.6301,306.0
65.6635,278.0
65.697,277.0
65.7304,277.0
65.7638,255.0
65.7972,280.0
65.8307,279.0
65.8641,299.0
65.8975,273.0
65.9309,292.0
65.9643,256.0
65.9978,303.0
66.0312,286.0
66.0646,273.0
66.098,281.0
66.1315,256.0
66.1649,252.0
66.1983,274.0
66.2317,275.0
66.2651,290.0
66.2986,268.0
66.332,254.0
66.3654,265.0
66.3988,280.0
66.4323,277.0
66.4657,257.0
66.4991,237.0
66.5325,275.0
66.566,275.0
66.5994,284.0
66.6328,276.0
66.6662,283.0
66.6996,270.0
66.7331,260.0
66.7665,280.0
66.7999,274.0
66.8333,297.0
66.8668,274.0
66.9002,278.0
66.9336,264.0
66.967,295.0
67.0004,292.0
67.0339,299.0
67.0673,264.0
67.1007,247.0
67.1341,253.0
67.1676,271.0
67.201,256.0
67.2344,241.0
67.2678,279.0
67.3012,275.0
67.3347,283.0
67.3681,259.0
67.4015,266.0
67.4349,273.0
67.4684,276.0
67.5018,244.0
67.5352,260.0
67.5686,280.0
67.602,264.0
67.6355,280.0
67.6689,263.0
67.7023,260.0
67.7357,253.0
67.7692,280.0
67.8026,268.0
67.836,302.0
67.8694,283.0
67.9029,278.0
67.9363,280.0
67.9697,258.0
68.0031,268.0
68.0365,243.0
68.07,253.0
68.1034,253.0
68.1368,293.0
68.1702,277.0
68.2037,265.0
68.2371,276.0
68.2705,281.0
68.3039,239.0
68.3373,288.0
68.3708,259.0
68.4042,269.0
68.4376,278.0
68.471,274.0
68.5045,283.0
68.5379,270.0
68.5713,280.0
68.6047,303.0
68.6381,245.0
68.6716,285.0
68.705,278.0
68.7384,262.0
68.7718,303.0
68.8053,287.0
68.8387,301.0
68.8721,303.0
68.9055,308.0
68.939,280.0
68.9724,232.0
69.0058,277.0
69.0392,290.0
69.0726,307.0
69.1061,293.0
69.1395,283.0
69.1729,281.0
69.2063,279.0
69.2398,307.0
69.2732,295.0
69.3066,328.0
69.34,306.0
69.3734,315.0
69.4069,289.0
69.4403,362.0
69.4737,358.0
69.5071,371.0
69.5406,327.0
69.574,335.0
69.6074,312.0
69.6408,372.0
69.6742,338.0
69.7077,336.0
69.7411,356.0
69.7745,367.0
69.8079,354.0
69.8414,358.0
69.8748,341.0
69.9082,359.0
69.9416,343.0
69.975,393.0
69.9918,356.0