File: herald_visualization/XRD_Plotting/Figures/FeF3/241216-FeF3-ball_milled_24h-20-70deg-40min.csv
2Theta,Intensity
20.0084,5861.0
20.0418,5816.0
20.0752,5807.0
20.1086,5834.0
20.142,5918.0
20.1755,5716.0
20.2089,5605.0
20.2423,5666.0
20.2757,5811.0
20.3092,5715.0
20.3426,5759.0
20.376,5782.0
20.4094,5646.0
20.4428,5734.0
20.4763,5777.0
20.5097,5638.0
20.5431,5607.0
20.5765,5689.0
20.61,5654.0
20.6434,5634.0
20.6768,5528.0
20.7102,5565.0
20.7437,5709.0
20.7771,5642.0
20.8105,5581.0
20.8439,5547.0
20.8773,5547.0
20.9108,5551.0
20.9442,5493.0
20.9776,5443.0
21.011,5455.0
21.0445,5521.0
21.0779,5469.0
21.1113,5393.0
21.1447,5439.0
21.1781,5369.0
21.2116,5524.0
21.245,5383.0
21.2784,5547.0
21.3118,5380.0
21.3453,5436.0
21.3787,5414.0
21.4121,5198.0
21.4455,5210.0
21.4789,5191.0
21.5124,5319.0
21.5458,5392.0
21.5792,5257.0
21.6126,5197.0
21.6461,5344.0
21.6795,5329.0
21.7129,5145.0
21.7463,5187.0
21.7798,5178.0
21.8132,5202.0
21.8466,5101.0
21.88,5133.0
21.9134,5093.0
21.9469,5049.0
21.9803,5165.0
22.0137,5209.0
22.0471,5180.0
22.0806,5091.0
22.114,5076.0
22.1474,5164.0
22.1808,5041.0
22.2142,5085.0
22.2477,4957.0
22.2811,5117.0
22.3145,4980.0
22.3479,4955.0
22.3814,4972.0
22.4148,4918.0
22.4482,5068.0
22.4816,4990.0
22.515,5023.0
22.5485,4877.0
22.5819,4957.0
22.6153,5103.0
22.6487,4809.0
22.6822,5024.0
22.7156,5099.0
22.749,4978.0
22.7824,5075.0
22.8158,5120.0
22.8493,5146.0
22.8827,5072.0
22.9161,5056.0
22.9495,5110.0
22.983,5027.0
23.0164,5071.0
23.0498,5189.0
23.0832,5123.0
23.1167,5087.0
23.1501,5257.0
23.1835,5417.0
23.2169,5559.0
23.2503,5717.0
23.2838,6020.0
23.3172,6241.0
23.3506,6535.0
23.384,7023.0
23.4175,7475.0
23.4509,8223.0
23.4843,8692.0
23.5177,9118.0
23.5511,9285.0
23.5846,9359.0
23.618,9020.0
23.6514,8462.0
23.6848,7890.0
23.7183,7198.0
23.7517,6870.0
23.7851,6438.0
23.8185,6101.0
23.8519,5799.0
23.8854,5692.0
23.9188,5524.0
23.9522,5413.0
23.9856,5421.0
24.0191,5177.0
24.0525,5202.0
24.0859,5115.0
24.1193,5090.0
24.1528,4934.0
24.1862,4991.0
24.2196,4810.0
24.253,4789.0
24.2864,4741.0
24.3199,4931.0
24.3533,4692.0
24.3867,4776.0
24.4201,4691.0
24.4536,4626.0
24.487,4685.0
24.5204,4547.0
24.5538,4715.0
24.5872,4610.0
24.6207,4572.0
24.6541,4710.0
24.6875,4531.0
24.7209,4501.0
24.7544,4562.0
24.7878,4379.0
24.8212,4620.0
24.8546,4430.0
24.888,4533.0
24.9215,4580.0
24.9549,4456.0
24.9883,4573.0
25.0217,4501.0
25.0552,4517.0
25.0886,4501.0
25.122,4481.0
25.1554,4505.0
25.1888,4475.0
25.2223,4516.0
25.2557,4402.0
25.2891,4554.0
25.3225,4413.0
25.356,4413.0
25.3894,4413.0
25.4228,4574.0
25.4562,4466.0
25.4897,4446.0
25.5231,4385.0
25.5565,4403.0
25.5899,4459.0
25.6233,4449.0
25.6568,4439.0
25.6902,4462.0
25.7236,4369.0
25.757,4392.0
25.7905,4328.0
25.8239,4497.0
25.8573,4365.0
25.8907,4346.0
25.9241,4255.0
25.9576,4316.0
25.991,4380.0
26.0244,4293.0
26.0578,4250.0
26.0913,4294.0
26.1247,4455.0
26.1581,4375.0
26.1915,4361.0
26.2249,4415.0
26.2584,4383.0
26.2918,4224.0
26.3252,4316.0
26.3586,4342.0
26.3921,4277.0
26.4255,4221.0
26.4589,4354.0
26.4923,4309.0
26.5258,4278.0
26.5592,4279.0
26.5926,4280.0
26.626,4284.0
26.6594,4332.0
26.6929,4446.0
26.7263,4274.0
26.7597,4359.0
26.7931,4284.0
26.8266,4170.0
26.86,4331.0
26.8934,4186.0
26.9268,4232.0
26.9602,4217.0
26.9937,4136.0
27.0271,4302.0
27.0605,4143.0
27.0939,4171.0
27.1274,4343.0
27.1608,4349.0
27.1942,4329.0
27.2276,4190.0
27.261,4212.0
27.2945,4237.0
27.3279,4369.0
27.3613,4142.0
27.3947,4181.0
27.4282,4184.0
27.4616,4220.0
27.495,4215.0
27.5284,4310.0
27.5618,4202.0
27.5953,4256.0
27.6287,4122.0
27.6621,4232.0
27.6955,4175.0
27.729,4204.0
27.7624,4264.0
27.7958,4283.0
27.8292,4283.0
27.8627,4170.0
27.8961,4246.0
27.9295,4157.0
27.9629,4277.0
27.9963,4217.0
28.0298,4208.0
28.0632,4193.0
28.0966,4077.0
28.13,4252.0
28.1635,4112.0
28.1969,4135.0
28.2303,4067.0
28.2637,4075.0
28.2971,3994.0
28.3306,4105.0
28.364,4255.0
28.3974,4175.0
28.4308,4097.0
28.4643,4188.0
28.4977,4069.0
28.5311,4159.0
28.5645,4116.0
28.5979,4103.0
28.6314,4302.0
28.6648,4090.0
28.6982,4144.0
28.7316,4126.0
28.7651,4028.0
28.7985,4236.0
28.8319,4064.0
28.8653,4165.0
28.8988,4217.0
28.9322,4158.0
28.9656,3956.0
28.999,4066.0
29.0324,4151.0
29.0659,4112.0
29.0993,4075.0
29.1327,4003.0
29.1661,4055.0
29.1996,4078.0
29.233,4051.0
29.2664,3954.0
29.2998,3885.0
29.3332,4079.0
29.3667,4022.0
29.4001,4106.0
29.4335,4010.0
29.4669,4000.0
29.5004,3993.0
29.5338,3948.0
29.5672,3964.0
29.6006,4036.0
29.634,3992.0
29.6675,4067.0
29.7009,3906.0
29.7343,4074.0
29.7677,3919.0
29.8012,3999.0
29.8346,4014.0
29.868,4038.0
29.9014,4102.0
29.9348,4096.0
29.9683,3870.0
30.0017,3885.0
30.0351,3891.0
30.0685,4031.0
30.102,3936.0
30.1354,3923.0
30.1688,3947.0
30.2022,3776.0
30.2357,3922.0
30.2691,4090.0
30.3025,3953.0
30.3359,3919.0
30.3693,3935.0
30.4028,3874.0
30.4362,3869.0
30.4696,3924.0
30.503,4000.0
30.5365,3884.0
30.5699,3906.0
30.6033,3844.0
30.6367,3816.0
30.6701,3980.0
30.7036,3794.0
30.737,3861.0
30.7704,3971.0
30.8038,3783.0
30.8373,3825.0
30.8707,3883.0
30.9041,3839.0
30.9375,3950.0
30.9709,3860.0
31.0044,3914.0
31.0378,3849.0
31.0712,3758.0
31.1046,3901.0
31.1381,3773.0
31.1715,3794.0
31.2049,3923.0
31.2383,3700.0
31.2718,3876.0
31.3052,3877.0
31.3386,3921.0
31.372,3845.0
31.4054,3734.0
31.4389,3842.0
31.4723,3909.0
31.5057,3946.0
31.5391,3835.0
31.5726,3750.0
31.606,3872.0
31.6394,3822.0
31.6728,3803.0
31.7062,3913.0
31.7397,3760.0
31.7731,3748.0
31.8065,3778.0
31.8399,3809.0
31.8734,3897.0
31.9068,3843.0
31.9402,3786.0
31.9736,3700.0
32.007,3805.0
32.0405,3830.0
32.0739,3799.0
32.1073,3810.0
32.1407,3821.0
32.1742,3966.0
32.2076,3755.0
32.241,3774.0
32.2744,3668.0
32.3078,3941.0
32.3413,3852.0
32.3747,3741.0
32.4081,3724.0
32.4415,3821.0
32.475,3962.0
32.5084,3894.0
32.5418,3865.0
32.5752,3872.0
32.6087,3935.0
32.6421,3803.0
32.6755,3846.0
32.7089,3790.0
32.7423,3970.0
32.7758,3851.0
32.8092,3957.0
32.8426,3929.0
32.876,4030.0
32.9095,3984.0
32.9429,3943.0
32.9763,3932.0
33.0097,4126.0
33.0431,4066.0
33.0766,4120.0
33.11,4249.0
33.1434,4144.0
33.1768,4247.0
33.2103,4222.0
33.2437,4224.0
33.2771,4232.0
33.3105,4062.0
33.3439,4040.0
33.3774,4154.0
33.4108,3934.0
33.4442,4031.0
33.4776,4014.0
33.5111,4072.0
33.5445,4114.0
33.5779,3940.0
33.6113,3948.0
33.6448,3935.0
33.6782,3936.0
33.7116,3830.0
33.745,3938.0
33.7784,3809.0
33.8119,3939.0
33.8453,3946.0
33.8787,3865.0
33.9121,3860.0
33.9456,3936.0
33.979,3939.0
34.0124,3859.0
34.0458,3928.0
34.0792,3863.0
34.1127,3842.0
34.1461,3878.0
34.1795,3919.0
34.2129,3812.0
34.2464,4098.0
34.2798,3886.0
34.3132,3812.0
34.3466,3815.0
34.38,3829.0
34.4135,3753.0
34.4469,3693.0
34.4803,3727.0
34.5137,3758.0
34.5472,3680.0
34.5806,3636.0
34.614,3740.0
34.6474,3761.0
34.6808,3767.0
34.7143,3781.0
34.7477,3747.0
34.7811,3682.0
34.8145,3663.0
34.848,3609.0
34.8814,3747.0
34.9148,3646.0
34.9482,3711.0
34.9817,3670.0
35.0151,3774.0
35.0485,3633.0
35.0819,3680.0
35.1153,3638.0
35.1488,3739.0
35.1822,3698.0
35.2156,3629.0
35.249,3662.0
35.2825,3596.0
35.3159,3702.0
35.3493,3524.0
35.3827,3735.0
35.4161,3666.0
35.4496,3606.0
35.483,3687.0
35.5164,3690.0
35.5498,3733.0
35.5833,3568.0
35.6167,3611.0
35.6501,3587.0
35.6835,3705.0
35.7169,3616.0
35.7504,3598.0
35.7838,3666.0
35.8172,3594.0
35.8506,3710.0
35.8841,3533.0
35.9175,3648.0
35.9509,3664.0
35.9843,3670.0
36.0178,3558.0
36.0512,3666.0
36.0846,3576.0
36.118,3490.0
36.1514,3510.0
36.1849,3603.0
36.2183,3670.0
36.2517,3663.0
36.2851,3594.0
36.3186,3533.0
36.352,3633.0
36.3854,3605.0
36.4188,3576.0
36.4522,3593.0
36.4857,3632.0
36.5191,3624.0
36.5525,3591.0
36.5859,3535.0
36.6194,3438.0
36.6528,3682.0
36.6862,3618.0
36.7196,3590.0
36.753,3607.0
36.7865,3616.0
36.8199,3665.0
36.8533,3535.0
36.8867,3561.0
36.9202,3431.0
36.9536,3521.0
36.987,3562.0
37.0204,3678.0
37.0538,3588.0
37.0873,3477.0
37.1207,3618.0
37.1541,3540.0
37.1875,3491.0
37.221,3539.0
37.2544,3546.0
37.2878,3495.0
37.3212,3692.0
37.3547,3611.0
37.3881,3563.0
37.4215,3566.0
37.4549,3522.0
37.4883,3535.0
37.5218,3576.0
37.5552,3582.0
37.5886,3598.0
37.622,3584.0
37.6555,3564.0
37.6889,3485.0
37.7223,3609.0
37.7557,3590.0
37.7891,3609.0
37.8226,3604.0
37.856,3637.0
37.8894,3592.0
37.9228,3485.0
37.9563,3451.0
37.9897,3589.0
38.0231,3639.0
38.0565,3447.0
38.0899,3564.0
38.1234,3591.0
38.1568,3552.0
38.1902,3511.0
38.2236,3505.0
38.2571,3603.0
38.2905,3523.0
38.3239,3499.0
38.3573,3476.0
38.3908,3504.0
38.4242,3568.0
38.4576,3513.0
38.491,3497.0
38.5244,3577.0
38.5579,3599.0
38.5913,3528.0
38.6247,3560.0
38.6581,3447.0
38.6916,3610.0
38.725,3570.0
38.7584,3626.0
38.7918,3521.0
38.8252,3667.0
38.8587,3678.0
38.8921,3566.0
38.9255,3605.0
38.9589,3574.0
38.9924,3611.0
39.0258,3639.0
39.0592,3583.0
39.0926,3445.0
39.126,3577.0
39.1595,3498.0
39.1929,3694.0
39.2263,3648.0
39.2597,3571.0
39.2932,3445.0
39.3266,3559.0
39.36,3620.0
39.3934,3646.0
39.4269,3594.0
39.4603,3696.0
39.4937,3604.0
39.5271,3687.0
39.5605,3772.0
39.594,3793.0
39.6274,3749.0
39.6608,3799.0
39.6942,3734.0
39.7277,3878.0
39.7611,3842.0
39.7945,3820.0
39.8279,3788.0
39.8613,3937.0
39.8948,3968.0
39.9282,4029.0
39.9616,3807.0
39.995,3667.0
40.0285,3898.0
40.0619,3757.0
40.0953,3808.0
40.1287,3757.0
40.1621,3745.0
40.1956,3715.0
40.229,3719.0
40.2624,3790.0
40.2958,3601.0
40.3293,3659.0
40.3627,3688.0
40.3961,3713.0
40.4295,3606.0
40.4629,3598.0
40.4964,3562.0
40.5298,3680.0
40.5632,3612.0
40.5966,3666.0
40.6301,3524.0
40.6635,3647.0
40.6969,3490.0
40.7303,3608.0
40.7638,3523.0
40.7972,3558.0
40.8306,3604.0
40.864,3512.0
40.8974,3624.0
40.9309,3533.0
40.9643,3545.0
40.9977,3500.0
41.0311,3592.0
41.0646,3646.0
41.098,3540.0
41.1314,3482.0
41.1648,3542.0
41.1982,3514.0
41.2317,3588.0
41.2651,3643.0
41.2985,3491.0
41.3319,3449.0
41.3654,3480.0
41.3988,3543.0
41.4322,3616.0
41.4656,3528.0
41.499,3618.0
41.5325,3400.0
41.5659,3598.0
41.5993,3496.0
41.6327,3492.0
41.6662,3490.0
41.6996,3592.0
41.733,3635.0
41.7664,3535.0
41.7999,3478.0
41.8333,3567.0
41.8667,3579.0
41.9001,3595.0
41.9335,3482.0
41.967,3495.0
42.0004,3515.0
42.0338,3489.0
42.0672,3472.0
42.1007,3575.0
42.1341,3511.0
42.1675,3588.0
42.2009,3621.0
42.2343,3537.0
42.2678,3554.0
42.3012,3521.0
42.3346,3480.0
42.368,3482.0
42.4015,3437.0
42.4349,3356.0
42.4683,3496.0
42.5017,3513.0
42.5351,3542.0
42.5686,3576.0
42.602,3500.0
42.6354,3447.0
42.6688,3461.0
42.7023,3473.0
42.7357,3511.0
42.7691,3450.0
42.8025,3510.0
42.8359,3507.0
42.8694,3438.0
42.9028,3509.0
42.9362,3458.0
42.9696,3477.0
43.0031,3447.0
43.0365,3407.0
43.0699,3423.0
43.1033,3641.0
43.1368,3560.0
43.1702,3494.0
43.2036,3438.0
43.237,3552.0
43.2704,3448.0
43.3039,3407.0
43.3373,3495.0
43.3707,3540.0
43.4041,3481.0
43.4376,3548.0
43.471,3513.0
43.5044,3434.0
43.5378,3492.0
43.5712,3422.0
43.6047,3556.0
43.6381,3443.0
43.6715,3563.0
43.7049,3558.0
43.7384,3576.0
43.7718,3491.0
43.8052,3438.0
43.8386,3458.0
43.872,3564.0
43.9055,3504.0
43.9389,3602.0
43.9723,3418.0
44.0057,3588.0
44.0392,3574.0
44.0726,3478.0
44.106,3459.0
44.1394,3553.0
44.1729,3493.0
44.2063,3374.0
44.2397,3500.0
44.2731,3429.0
44.3065,3485.0
44.34,3509.0
44.3734,3431.0
44.4068,3467.0
44.4402,3420.0
44.4737,3479.0
44.5071,3417.0
44.5405,3543.0
44.5739,3341.0
44.6073,3585.0
44.6408,3559.0
44.6742,3474.0
44.7076,3505.0
44.741,3572.0
44.7745,3472.0
44.8079,3496.0
44.8413,3464.0
44.8747,3522.0
44.9081,3516.0
44.9416,3468.0
44.975,3394.0
45.0084,3522.0
45.0418,3504.0
45.0753,3498.0
45.1087,3515.0
45.1421,3484.0
45.1755,3390.0
45.2089,3463.0
45.2424,3539.0
45.2758,3535.0
45.3092,3396.0
45.3426,3504.0
45.3761,3410.0
45.4095,3595.0
45.4429,3493.0
45.4763,3485.0
45.5098,3462.0
45.5432,3473.0
45.5766,3445.0
45.61,3588.0
45.6434,3417.0
45.6769,3400.0
45.7103,3468.0
45.7437,3507.0
45.7771,3512.0
45.8106,3435.0
45.844,3477.0
45.8774,3442.0
45.9108,3458.0
45.9442,3405.0
45.9777,3421.0
46.0111,3359.0
46.0445,3475.0
46.0779,3481.0
46.1114,3432.0
46.1448,3411.0
46.1782,3547.0
46.2116,3517.0
46.245,3479.0
46.2785,3524.0
46.3119,3500.0
46.3453,3421.0
46.3787,3476.0
46.4122,3458.0
46.4456,3551.0
46.479,3482.0
46.5124,3505.0
46.5459,3564.0
46.5793,3468.0
46.6127,3498.0
46.6461,3458.0
46.6795,3519.0
46.713,3551.0
46.7464,3467.0
46.7798,3595.0
46.8132,3441.0
46.8467,3526.0
46.8801,3477.0
46.9135,3562.0
46.9469,3470.0
46.9803,3490.0
47.0138,3421.0
47.0472,3410.0
47.0806,3507.0
47.114,3473.0
47.1475,3512.0
47.1809,3425.0
47.2143,3492.0
47.2477,3460.0
47.2811,3531.0
47.3146,3484.0
47.348,3388.0
47.3814,3438.0
47.4148,3549.0
47.4483,3448.0
47.4817,3577.0
47.5151,3459.0
47.5485,3495.0
47.5819,3606.0
47.6154,3495.0
47.6488,3446.0
47.6822,3542.0
47.7156,3538.0
47.7491,3569.0
47.7825,3499.0
47.8159,3470.0
47.8493,3689.0
47.8828,3580.0
47.9162,3536.0
47.9496,3634.0
47.983,3572.0
48.0164,3619.0
48.0499,3702.0
48.0833,3598.0
48.1167,3842.0
48.1501,3859.0
48.1836,3964.0
48.217,3896.0
48.2504,3904.0
48.2838,3893.0
48.3172,4083.0
48.3507,4108.0
48.3841,4120.0
48.4175,4261.0
48.4509,4308.0
48.4844,4144.0
48.5178,4078.0
48.5512,4184.0
48.5846,4144.0
48.618,4041.0
48.6515,4010.0
48.6849,3925.0
48.7183,3829.0
48.7517,3828.0
48.7852,3892.0
48.8186,3902.0
48.852,3651.0
48.8854,3697.0
48.9189,3659.0
48.9523,3635.0
48.9857,3552.0
49.0191,3561.0
49.0525,3593.0
49.086,3616.0
49.1194,3602.0
49.1528,3709.0
49.1862,3674.0
49.2197,3607.0
49.2531,3598.0
49.2865,3681.0
49.3199,3568.0
49.3533,3422.0
49.3868,3558.0
49.4202,3479.0
49.4536,3537.0
49.487,3607.0
49.5205,3456.0
49.5539,3519.0
49.5873,3435.0
49.6207,3562.0
49.6541,3559.0
49.6876,3529.0
49.721,3461.0
49.7544,3495.0
49.7878,3546.0
49.8213,3443.0
49.8547,3500.0
49.8881,3547.0
49.9215,3542.0
49.9549,3383.0
49.9884,3524.0
50.0218,3466.0
50.0552,3463.0
50.0886,3492.0
50.1221,3552.0
50.1555,3437.0
50.1889,3451.0
50.2223,3399.0
50.2558,3433.0
50.2892,3489.0
50.3226,3448.0
50.356,3383.0
50.3894,3430.0
50.4229,3463.0
50.4563,3528.0
50.4897,3533.0
50.5231,3444.0
50.5566,3537.0
50.59,3541.0
50.6234,3441.0
50.6568,3588.0
50.6902,3478.0
50.7237,3447.0
50.7571,3489.0
50.7905,3498.0
50.8239,3523.0
50.8574,3436.0
50.8908,3485.0
50.9242,3427.0
50.9576,3462.0
50.991,3470.0
51.0245,3493.0
51.0579,3437.0
51.0913,3498.0
51.1247,3392.0
51.1582,3475.0
51.1916,3507.0
51.225,3445.0
51.2584,3496.0
51.2919,3472.0
51.3253,3480.0
51.3587,3451.0
51.3921,3451.0
51.4255,3430.0
51.459,3433.0
51.4924,3446.0
51.5258,3511.0
51.5592,3370.0
51.5927,3463.0
51.6261,3308.0
51.6595,3468.0
51.6929,3461.0
51.7263,3445.0
51.7598,3434.0
51.7932,3495.0
51.8266,3466.0
51.86,3386.0
51.8935,3364.0
51.9269,3401.0
51.9603,3428.0
51.9937,3481.0
52.0271,3470.0
52.0606,3389.0
52.094,3429.0
52.1274,3488.0
52.1608,3494.0
52.1943,3385.0
52.2277,3501.0
52.2611,3458.0
52.2945,3409.0
52.3279,3499.0
52.3614,3310.0
52.3948,3432.0
52.4282,3432.0
52.4616,3372.0
52.4951,3512.0
52.5285,3493.0
52.5619,3435.0
52.5953,3540.0
52.6288,3468.0
52.6622,3500.0
52.6956,3456.0
52.729,3476.0
52.7624,3517.0
52.7959,3525.0
52.8293,3549.0
52.8627,3461.0
52.8961,3481.0
52.9296,3462.0
52.963,3422.0
52.9964,3462.0
53.0298,3517.0
53.0632,3451.0
53.0967,3526.0
53.1301,3410.0
53.1635,3526.0
53.1969,3507.0
53.2304,3636.0
53.2638,3431.0
53.2972,3502.0
53.3306,3438.0
53.364,3568.0
53.3975,3640.0
53.4309,3545.0
53.4643,3478.0
53.4977,3771.0
53.5312,3648.0
53.5646,3723.0
53.598,3782.0
53.6314,3700.0
53.6649,3783.0
53.6983,3807.0
53.7317,3952.0
53.7651,3964.0
53.7985,3981.0
53.832,4090.0
53.8654,3973.0
53.8988,4104.0
53.9322,4293.0
53.9657,4112.0
53.9991,4093.0
54.0325,4216.0
54.0659,4091.0
54.0993,4112.0
54.1328,3936.0
54.1662,4020.0
54.1996,4000.0
54.233,4045.0
54.2665,3935.0
54.2999,3892.0
54.3333,3977.0
54.3667,3936.0
54.4001,3737.0
54.4336,3802.0
54.467,3870.0
54.5004,3715.0
54.5338,3711.0
54.5673,3624.0
54.6007,3783.0
54.6341,3730.0
54.6675,3837.0
54.701,3720.0
54.7344,3810.0
54.7678,3723.0
54.8012,3729.0
54.8346,3693.0
54.8681,3774.0
54.9015,3687.0
54.9349,3725.0
54.9683,3689.0
55.0018,3814.0
55.0352,3840.0
55.0686,3762.0
55.102,3687.0
55.1354,3634.0
55.1689,3803.0
55.2023,3842.0
55.2357,3932.0
55.2691,3760.0
55.3026,3829.0
55.336,3715.0
55.3694,3966.0
55.4028,3790.0
55.4362,3771.0
55.4697,3716.0
55.5031,3643.0
55.5365,3654.0
55.5699,3645.0
55.6034,3606.0
55.6368,3585.0
55.6702,3573.0
55.7036,3562.0
55.737,3647.0
55.7705,3571.0
55.8039,3710.0
55.8373,3551.0
55.8707,3476.0
55.9042,3598.0
55.9376,3544.0
55.971,3553.0
56.0044,3400.0
56.0379,3598.0
56.0713,3508.0
56.1047,3501.0
56.1381,3434.0
56.1715,3536.0
56.205,3557.0
56.2384,3562.0
56.2718,3415.0
56.3052,3508.0
56.3387,3490.0
56.3721,3343.0
56.4055,3405.0
56.4389,3439.0
56.4723,3406.0
56.5058,3386.0
56.5392,3568.0
56.5726,3435.0
56.606,3556.0
56.6395,3607.0
56.6729,3504.0
56.7063,3467.0
56.7397,3489.0
56.7731,3446.0
56.8066,3415.0
56.84,3419.0
56.8734,3356.0
56.9068,3413.0
56.9403,3414.0
56.9737,3445.0
57.0071,3339.0
57.0405,3509.0
57.074,3456.0
57.1074,3396.0
57.1408,3472.0
57.1742,3555.0
57.2076,3473.0
57.2411,3374.0
57.2745,3484.0
57.3079,3444.0
57.3413,3464.0
57.3748,3433.0
57.4082,3528.0
57.4416,3364.0
57.475,3499.0
57.5084,3444.0
57.5419,3478.0
57.5753,3530.0
57.6087,3445.0
57.6421,3340.0
57.6756,3482.0
57.709,3412.0
57.7424,3462.0
57.7758,3395.0
57.8092,3421.0
57.8427,3218.0
57.8761,3546.0
57.9095,3562.0
57.9429,3428.0
57.9764,3461.0
58.0098,3491.0
58.0432,3453.0
58.0766,3590.0
58.11,3387.0
58.1435,3545.0
58.1769,3450.0
58.2103,3472.0
58.2437,3477.0
58.2772,3573.0
58.3106,3484.0
58.344,3539.0
58.3774,3496.0
58.4109,3433.0
58.4443,3448.0
58.4777,3511.0
58.5111,3569.0
58.5445,3392.0
58.578,3470.0
58.6114,3445.0
58.6448,3435.0
58.6782,3523.0
58.7117,3467.0
58.7451,3434.0
58.7785,3531.0
58.8119,3480.0
58.8453,3441.0
58.8788,3442.0
58.9122,3522.0
58.9456,3570.0
58.979,3569.0
59.0125,3523.0
59.0459,3438.0
59.0793,3379.0
59.1127,3438.0
59.1461,3498.0
59.1796,3562.0
59.213,3359.0
59.2464,3463.0
59.2798,3421.0
59.3133,3464.0
59.3467,3438.0
59.3801,3458.0
59.4135,3531.0
59.447,3449.0
59.4804,3429.0
59.5138,3548.0
59.5472,3621.0
59.5806,3484.0
59.6141,3485.0
59.6475,3476.0
59.6809,3479.0
59.7143,3516.0
59.7478,3404.0
59.7812,3457.0
59.8146,3460.0
59.848,3389.0
59.8814,3575.0
59.9149,3531.0
59.9483,3529.0
59.9817,3449.0
60.0151,3508.0
60.0486,3524.0
60.082,3500.0
60.1154,3529.0
60.1488,3370.0
60.1822,3414.0
60.2157,3524.0
60.2491,3477.0
60.2825,3525.0
60.3159,3508.0
60.3494,3369.0
60.3828,3476.0
60.4162,3612.0
60.4496,3606.0
60.483,3603.0
60.5165,3501.0
60.5499,3564.0
60.5833,3480.0
60.6167,3610.0
60.6502,3576.0
60.6836,3657.0
60.717,3678.0
60.7504,3544.0
60.7839,3539.0
60.8173,3640.0
60.8507,3569.0
60.8841,3548.0
60.9175,3563.0
60.951,3554.0
60.9844,3634.0
61.0178,3676.0
61.0512,3547.0
61.0847,3579.0
61.1181,3570.0
61.1515,3548.0
61.1849,3556.0
61.2183,3585.0
61.2518,3464.0
61.2852,3460.0
61.3186,3507.0
61.352,3572.0
61.3855,3605.0
61.4189,3546.0
61.4523,3578.0
61.4857,3611.0
61.5191,3569.0
61.5526,3576.0
61.586,3405.0
61.6194,3540.0
61.6528,3536.0
61.6863,3466.0
61.7197,3592.0
61.7531,3537.0
61.7865,3573.0
61.82,3523.0
61.8534,3520.0
61.8868,3560.0
61.9202,3516.0
61.9536,3452.0
61.9871,3509.0
62.0205,3423.0
62.0539,3480.0
62.0873,3429.0
62.1208,3497.0
62.1542,3557.0
62.1876,3459.0
62.221,3453.0
62.2544,3384.0
62.2879,3357.0
62.3213,3465.0
62.3547,3464.0
62.3881,3465.0
62.4216,3411.0
62.455,3374.0
62.4884,3315.0
62.5218,3460.0
62.5552,3355.0
62.5887,3334.0
62.6221,3410.0
62.6555,3522.0
62.6889,3418.0
62.7224,3540.0
62.7558,3453.0
62.7892,3414.0
62.8226,3446.0
62.856,3492.0
62.8895,3433.0
62.9229,3498.0
62.9563,3381.0
62.9897,3431.0
63.0232,3435.0
63.0566,3396.0
63.09,3430.0
63.1234,3506.0
63.1569,3391.0
63.1903,3475.0
63.2237,3528.0
63.2571,3410.0
63.2905,3321.0
63.324,3427.0
63.3574,3395.0
63.3908,3397.0
63.4242,3427.0
63.4577,3460.0
63.4911,3343.0
63.5245,3514.0
63.5579,3428.0
63.5913,3486.0
63.6248,3392.0
63.6582,3449.0
63.6916,3398.0
63.725,3511.0
63.7585,3372.0
63.7919,3231.0
63.8253,3492.0
63.8587,3497.0
63.8921,3497.0
63.9256,3493.0
63.959,3395.0
63.9924,3306.0
64.0258,3415.0
64.0593,3448.0
64.0927,3421.0
64.1261,3351.0
64.1595,3456.0
64.193,3384.0
64.2264,3380.0
64.2598,3372.0
64.2932,3362.0
64.3266,3486.0
64.3601,3381.0
64.3935,3420.0
64.4269,3396.0
64.4603,3429.0
64.4938,3295.0
64.5272,3392.0
64.5606,3235.0
64.594,3356.0
64.6274,3446.0
64.6609,3463.0
64.6943,3379.0
64.7277,3468.0
64.7611,3451.0
64.7946,3462.0
64.828,3347.0
64.8614,3463.0
64.8948,3469.0
64.9282,3407.0
64.9617,3396.0
64.9951,3359.0
65.0285,3347.0
65.0619,3505.0
65.0954,3414.0
65.1288,3366.0
65.1622,3411.0
65.1956,3342.0
65.229,3378.0
65.2625,3355.0
65.2959,3429.0
65.3293,3447.0
65.3627,3496.0
65.3962,3378.0
65.4296,3353.0
65.463,3401.0
65.4964,3370.0
65.5299,3406.0
65.5633,3374.0
65.5967,3388.0
65.6301,3466.0
65.6635,3370.0
65.697,3363.0
65.7304,3431.0
65.7638,3387.0
65.7972,3368.0
65.8307,3309.0
65.8641,3394.0
65.8975,3372.0
65.9309,3519.0
65.9643,3382.0
65.9978,3454.0
66.0312,3388.0
66.0646,3432.0
66.098,3418.0
66.1315,3392.0
66.1649,3341.0
66.1983,3328.0
66.2317,3423.0
66.2651,3425.0
66.2986,3347.0
66.332,3447.0
66.3654,3255.0
66.3988,3430.0
66.4323,3429.0
66.4657,3406.0
66.4991,3353.0
66.5325,3284.0
66.566,3349.0
66.5994,3421.0
66.6328,3417.0
66.6662,3382.0
66.6996,3350.0
66.7331,3411.0
66.7665,3372.0
66.7999,3434.0
66.8333,3386.0
66.8668,3438.0
66.9002,3418.0
66.9336,3322.0
66.967,3336.0
67.0004,3353.0
67.0339,3506.0
67.0673,3324.0
67.1007,3479.0
67.1341,3326.0
67.1676,3313.0
67.201,3421.0
67.2344,3293.0
67.2678,3406.0
67.3012,3391.0
67.3347,3237.0
67.3681,3332.0
67.4015,3399.0
67.4349,3484.0
67.4684,3382.0
67.5018,3392.0
67.5352,3321.0
67.5686,3313.0
67.602,3467.0
67.6355,3320.0
67.6689,3431.0
67.7023,3306.0
67.7357,3429.0
67.7692,3379.0
67.8026,3327.0
67.836,3442.0
67.8694,3339.0
67.9029,3264.0
67.9363,3409.0
67.9697,3348.0
68.0031,3472.0
68.0365,3373.0
68.07,3319.0
68.1034,3398.0
68.1368,3445.0
68.1702,3469.0
68.2037,3351.0
68.2371,3386.0
68.2705,3447.0
68.3039,3406.0
68.3373,3416.0
68.3708,3334.0
68.4042,3413.0
68.4376,3403.0
68.471,3332.0
68.5045,3428.0
68.5379,3365.0
68.5713,3349.0
68.6047,3492.0
68.6381,3446.0
68.6716,3423.0
68.705,3338.0
68.7384,3413.0
68.7718,3320.0
68.8053,3423.0
68.8387,3415.0
68.8721,3332.0
68.9055,3482.0
68.939,3372.0
68.9724,3411.0
69.0058,3482.0
69.0392,3431.0
69.0726,3454.0
69.1061,3384.0
69.1395,3362.0
69.1729,3447.0
69.2063,3376.0
69.2398,3522.0
69.2732,3340.0
69.3066,3391.0
69.34,3498.0
69.3734,3339.0
69.4069,3557.0
69.4403,3275.0
69.4737,3370.0
69.5071,3431.0
69.5406,3491.0
69.574,3513.0
69.6074,3451.0
69.6408,3560.0
69.6742,3419.0
69.7077,3473.0
69.7411,3386.0
69.7745,3611.0
69.8079,3535.0
69.8414,3417.0
69.8748,3645.0
69.9082,3528.0
69.9416,3497.0
69.975,3569.0
69.9918,3415.0