File: herald_visualization/XRD_Plotting/Figures/FeF3/250205_20-70deg_40min_FeF3_as_received.csv
2Theta,Intensity
20.0084,7233.0
20.0418,7419.0
20.0752,7345.0
20.1086,7404.0
20.142,7368.0
20.1755,7280.0
20.2089,7271.0
20.2423,7186.0
20.2757,7275.0
20.3092,7080.0
20.3426,7090.0
20.376,7185.0
20.4094,7196.0
20.4428,7164.0
20.4763,7199.0
20.5097,7190.0
20.5431,7002.0
20.5765,7097.0
20.61,7044.0
20.6434,7197.0
20.6768,7018.0
20.7102,6977.0
20.7437,6967.0
20.7771,7016.0
20.8105,7198.0
20.8439,7128.0
20.8773,7024.0
20.9108,7001.0
20.9442,6972.0
20.9776,7136.0
21.011,7101.0
21.0445,6921.0
21.0779,7010.0
21.1113,6909.0
21.1447,6953.0
21.1781,6937.0
21.2116,6885.0
21.245,7036.0
21.2784,6931.0
21.3118,6825.0
21.3453,6841.0
21.3787,6886.0
21.4121,6874.0
21.4455,6774.0
21.4789,6843.0
21.5124,6869.0
21.5458,6757.0
21.5792,6762.0
21.6126,6789.0
21.6461,6690.0
21.6795,6652.0
21.7129,6810.0
21.7463,6763.0
21.7798,6775.0
21.8132,6636.0
21.8466,6638.0
21.88,6627.0
21.9134,6526.0
21.9469,6668.0
21.9803,6687.0
22.0137,6573.0
22.0471,6633.0
22.0806,6540.0
22.114,6525.0
22.1474,6478.0
22.1808,6602.0
22.2142,6516.0
22.2477,6538.0
22.2811,6446.0
22.3145,6509.0
22.3479,6523.0
22.3814,6497.0
22.4148,6408.0
22.4482,6345.0
22.4816,6561.0
22.515,6529.0
22.5485,6548.0
22.5819,6435.0
22.6153,6250.0
22.6487,6464.0
22.6822,6381.0
22.7156,6324.0
22.749,6386.0
22.7824,6474.0
22.8158,6388.0
22.8493,6502.0
22.8827,6482.0
22.9161,6417.0
22.9495,6483.0
22.983,6305.0
23.0164,6490.0
23.0498,6381.0
23.0832,6445.0
23.1167,6428.0
23.1501,6554.0
23.1835,6622.0
23.2169,6498.0
23.2503,6552.0
23.2838,6701.0
23.3172,6805.0
23.3506,6823.0
23.384,6737.0
23.4175,6956.0
23.4509,7375.0
23.4843,7517.0
23.5177,8245.0
23.5511,8856.0
23.5846,9950.0
23.618,11186.0
23.6514,13292.0
23.6848,16230.0
23.7183,20089.0
23.7517,23642.0
23.7851,27446.0
23.8185,27481.0
23.8519,22046.0
23.8854,16810.0
23.9188,11859.0
23.9522,9367.0
23.9856,8101.0
24.0191,7494.0
24.0525,7079.0
24.0859,6919.0
24.1193,6563.0
24.1528,6449.0
24.1862,6363.0
24.2196,6383.0
24.253,6328.0
24.2864,6274.0
24.3199,6273.0
24.3533,6216.0
24.3867,6262.0
24.4201,6253.0
24.4536,6049.0
24.487,6153.0
24.5204,6172.0
24.5538,6104.0
24.5872,6182.0
24.6207,6155.0
24.6541,6067.0
24.6875,6053.0
24.7209,6046.0
24.7544,5947.0
24.7878,6175.0
24.8212,6012.0
24.8546,6084.0
24.888,6037.0
24.9215,6140.0
24.9549,6115.0
24.9883,5965.0
25.0217,5989.0
25.0552,5911.0
25.0886,5914.0
25.122,6078.0
25.1554,6119.0
25.1888,6159.0
25.2223,5946.0
25.2557,5938.0
25.2891,6108.0
25.3225,5913.0
25.356,6082.0
25.3894,5893.0
25.4228,6061.0
25.4562,6039.0
25.4897,5967.0
25.5231,6023.0
25.5565,5898.0
25.5899,5967.0
25.6233,6121.0
25.6568,6030.0
25.6902,5923.0
25.7236,5821.0
25.757,6018.0
25.7905,5803.0
25.8239,6057.0
25.8573,5912.0
25.8907,5876.0
25.9241,5950.0
25.9576,5858.0
25.991,5909.0
26.0244,5941.0
26.0578,5983.0
26.0913,5955.0
26.1247,5847.0
26.1581,5946.0
26.1915,5708.0
26.2249,5801.0
26.2584,5836.0
26.2918,5689.0
26.3252,5781.0
26.3586,5916.0
26.3921,5957.0
26.4255,5787.0
26.4589,5781.0
26.4923,5748.0
26.5258,5832.0
26.5592,5898.0
26.5926,5782.0
26.626,5788.0
26.6594,5926.0
26.6929,5882.0
26.7263,5943.0
26.7597,5809.0
26.7931,5770.0
26.8266,5767.0
26.86,5839.0
26.8934,5826.0
26.9268,5773.0
26.9602,5869.0
26.9937,6061.0
27.0271,5801.0
27.0605,6077.0
27.0939,5874.0
27.1274,5914.0
27.1608,5915.0
27.1942,5967.0
27.2276,5822.0
27.261,5804.0
27.2945,5952.0
27.3279,5915.0
27.3613,5842.0
27.3947,5848.0
27.4282,6005.0
27.4616,5981.0
27.495,5883.0
27.5284,5788.0
27.5618,5958.0
27.5953,5967.0
27.6287,5948.0
27.6621,5768.0
27.6955,5885.0
27.729,5819.0
27.7624,5926.0
27.7958,5868.0
27.8292,6034.0
27.8627,5808.0
27.8961,5737.0
27.9295,5885.0
27.9629,5817.0
27.9963,5785.0
28.0298,5967.0
28.0632,5783.0
28.0966,5743.0
28.13,5847.0
28.1635,5867.0
28.1969,5865.0
28.2303,5855.0
28.2637,5873.0
28.2971,5745.0
28.3306,5824.0
28.364,5797.0
28.3974,5849.0
28.4308,5832.0
28.4643,5835.0
28.4977,5629.0
28.5311,5756.0
28.5645,5798.0
28.5979,5851.0
28.6314,5778.0
28.6648,5696.0
28.6982,5719.0
28.7316,5830.0
28.7651,5899.0
28.7985,5752.0
28.8319,5712.0
28.8653,5847.0
28.8988,5726.0
28.9322,5785.0
28.9656,5719.0
28.999,5761.0
29.0324,5816.0
29.0659,5789.0
29.0993,5662.0
29.1327,5645.0
29.1661,5712.0
29.1996,5654.0
29.233,5736.0
29.2664,5762.0
29.2998,5710.0
29.3332,5653.0
29.3667,5613.0
29.4001,5695.0
29.4335,5753.0
29.4669,5803.0
29.5004,5603.0
29.5338,5616.0
29.5672,5807.0
29.6006,5665.0
29.634,5649.0
29.6675,5725.0
29.7009,5594.0
29.7343,5777.0
29.7677,5634.0
29.8012,5595.0
29.8346,5546.0
29.868,5797.0
29.9014,5763.0
29.9348,5536.0
29.9683,5574.0
30.0017,5528.0
30.0351,5698.0
30.0685,5789.0
30.102,5610.0
30.1354,5657.0
30.1688,5729.0
30.2022,5635.0
30.2357,5564.0
30.2691,5695.0
30.3025,5618.0
30.3359,5591.0
30.3693,5754.0
30.4028,5604.0
30.4362,5596.0
30.4696,5637.0
30.503,5726.0
30.5365,5714.0
30.5699,5721.0
30.6033,5566.0
30.6367,5588.0
30.6701,5646.0
30.7036,5647.0
30.737,5534.0
30.7704,5438.0
30.8038,5463.0
30.8373,5714.0
30.8707,5629.0
30.9041,5549.0
30.9375,5571.0
30.9709,5680.0
31.0044,5626.0
31.0378,5627.0
31.0712,5587.0
31.1046,5674.0
31.1381,5537.0
31.1715,5662.0
31.2049,5598.0
31.2383,5696.0
31.2718,5631.0
31.3052,5544.0
31.3386,5667.0
31.372,5583.0
31.4054,5583.0
31.4389,5621.0
31.4723,5499.0
31.5057,5659.0
31.5391,5549.0
31.5726,5428.0
31.606,5582.0
31.6394,5660.0
31.6728,5577.0
31.7062,5525.0
31.7397,5643.0
31.7731,5521.0
31.8065,5553.0
31.8399,5502.0
31.8734,5492.0
31.9068,5497.0
31.9402,5473.0
31.9736,5549.0
32.007,5573.0
32.0405,5572.0
32.0739,5525.0
32.1073,5463.0
32.1407,5517.0
32.1742,5647.0
32.2076,5405.0
32.241,5544.0
32.2744,5564.0
32.3078,5509.0
32.3413,5408.0
32.3747,5467.0
32.4081,5661.0
32.4415,5522.0
32.475,5565.0
32.5084,5547.0
32.5418,5612.0
32.5752,5659.0
32.6087,5564.0
32.6421,5559.0
32.6755,5691.0
32.7089,5532.0
32.7423,5573.0
32.7758,5563.0
32.8092,5782.0
32.8426,5661.0
32.876,5589.0
32.9095,5568.0
32.9429,5600.0
32.9763,5580.0
33.0097,5622.0
33.0431,5611.0
33.0766,5355.0
33.11,5699.0
33.1434,5846.0
33.1768,5880.0
33.2103,5930.0
33.2437,6291.0
33.2771,6549.0
33.3105,6835.0
33.3439,7391.0
33.3774,8020.0
33.4108,8114.0
33.4442,7849.0
33.4776,7400.0
33.5111,6855.0
33.5445,6495.0
33.5779,6200.0
33.6113,6019.0
33.6448,5926.0
33.6782,5809.0
33.7116,5850.0
33.745,5714.0
33.7784,5750.0
33.8119,5627.0
33.8453,5763.0
33.8787,5715.0
33.9121,5831.0
33.9456,5784.0
33.979,5656.0
34.0124,5711.0
34.0458,5813.0
34.0792,5728.0
34.1127,5783.0
34.1461,5795.0
34.1795,5834.0
34.2129,5873.0
34.2464,6036.0
34.2798,6105.0
34.3132,6186.0
34.3466,6417.0
34.38,6592.0
34.4135,6491.0
34.4469,6674.0
34.4803,6312.0
34.5137,6201.0
34.5472,6067.0
34.5806,5942.0
34.614,5758.0
34.6474,5693.0
34.6808,5507.0
34.7143,5653.0
34.7477,5605.0
34.7811,5616.0
34.8145,5549.0
34.848,5589.0
34.8814,5406.0
34.9148,5536.0
34.9482,5610.0
34.9817,5561.0
35.0151,5442.0
35.0485,5632.0
35.0819,5460.0
35.1153,5416.0
35.1488,5479.0
35.1822,5496.0
35.2156,5355.0
35.249,5631.0
35.2825,5401.0
35.3159,5481.0
35.3493,5468.0
35.3827,5365.0
35.4161,5416.0
35.4496,5516.0
35.483,5547.0
35.5164,5603.0
35.5498,5485.0
35.5833,5516.0
35.6167,5477.0
35.6501,5481.0
35.6835,5348.0
35.7169,5519.0
35.7504,5476.0
35.7838,5354.0
35.8172,5424.0
35.8506,5411.0
35.8841,5504.0
35.9175,5485.0
35.9509,5427.0
35.9843,5445.0
36.0178,5486.0
36.0512,5440.0
36.0846,5391.0
36.118,5511.0
36.1514,5530.0
36.1849,5430.0
36.2183,5496.0
36.2517,5392.0
36.2851,5516.0
36.3186,5461.0
36.352,5499.0
36.3854,5531.0
36.4188,5427.0
36.4522,5465.0
36.4857,5475.0
36.5191,5524.0
36.5525,5473.0
36.5859,5463.0
36.6194,5534.0
36.6528,5459.0
36.6862,5502.0
36.7196,5520.0
36.753,5298.0
36.7865,5478.0
36.8199,5568.0
36.8533,5570.0
36.8867,5418.0
36.9202,5501.0
36.9536,5515.0
36.987,5392.0
37.0204,5512.0
37.0538,5557.0
37.0873,5525.0
37.1207,5596.0
37.1541,5500.0
37.1875,5478.0
37.221,5479.0
37.2544,5606.0
37.2878,5597.0
37.3212,5561.0
37.3547,5518.0
37.3881,5486.0
37.4215,5465.0
37.4549,5594.0
37.4883,5493.0
37.5218,5600.0
37.5552,5584.0
37.5886,5446.0
37.622,5591.0
37.6555,5461.0
37.6889,5455.0
37.7223,5543.0
37.7557,5457.0
37.7891,5500.0
37.8226,5401.0
37.856,5573.0
37.8894,5559.0
37.9228,5459.0
37.9563,5477.0
37.9897,5588.0
38.0231,5460.0
38.0565,5484.0
38.0899,5566.0
38.1234,5304.0
38.1568,5528.0
38.1902,5320.0
38.2236,5518.0
38.2571,5493.0
38.2905,5511.0
38.3239,5483.0
38.3573,5390.0
38.3908,5604.0
38.4242,5525.0
38.4576,5344.0
38.491,5539.0
38.5244,5438.0
38.5579,5442.0
38.5913,5509.0
38.6247,5436.0
38.6581,5575.0
38.6916,5537.0
38.725,5433.0
38.7584,5509.0
38.7918,5491.0
38.8252,5349.0
38.8587,5516.0
38.8921,5555.0
38.9255,5564.0
38.9589,5556.0
38.9924,5525.0
39.0258,5504.0
39.0592,5624.0
39.0926,5431.0
39.126,5602.0
39.1595,5411.0
39.1929,5437.0
39.2263,5494.0
39.2597,5596.0
39.2932,5494.0
39.3266,5550.0
39.36,5527.0
39.3934,5489.0
39.4269,5587.0
39.4603,5574.0
39.4937,5470.0
39.5271,5616.0
39.5605,5609.0
39.594,5648.0
39.6274,5553.0
39.6608,5552.0
39.6942,5667.0
39.7277,5735.0
39.7611,5816.0
39.7945,5941.0
39.8279,5971.0
39.8613,6068.0
39.8948,6038.0
39.9282,6286.0
39.9616,6610.0
39.995,6670.0
40.0285,7046.0
40.0619,7240.0
40.0953,7476.0
40.1287,7617.0
40.1621,7485.0
40.1956,7115.0
40.229,6798.0
40.2624,6549.0
40.2958,6118.0
40.3293,6026.0
40.3627,5716.0
40.3961,5849.0
40.4295,5831.0
40.4629,5725.0
40.4964,5538.0
40.5298,5486.0
40.5632,5692.0
40.5966,5721.0
40.6301,5651.0
40.6635,5585.0
40.6969,5536.0
40.7303,5684.0
40.7638,5561.0
40.7972,5578.0
40.8306,5561.0
40.864,5539.0
40.8974,5553.0
40.9309,5488.0
40.9643,5397.0
40.9977,5571.0
41.0311,5430.0
41.0646,5505.0
41.098,5556.0
41.1314,5483.0
41.1648,5625.0
41.1982,5470.0
41.2317,5542.0
41.2651,5512.0
41.2985,5543.0
41.3319,5523.0
41.3654,5477.0
41.3988,5462.0
41.4322,5613.0
41.4656,5582.0
41.499,5460.0
41.5325,5616.0
41.5659,5581.0
41.5993,5544.0
41.6327,5351.0
41.6662,5463.0
41.6996,5662.0
41.733,5600.0
41.7664,5578.0
41.7999,5503.0
41.8333,5517.0
41.8667,5647.0
41.9001,5572.0
41.9335,5504.0
41.967,5651.0
42.0004,5475.0
42.0338,5781.0
42.0672,5557.0
42.1007,5577.0
42.1341,5485.0
42.1675,5704.0
42.2009,5831.0
42.2343,5677.0
42.2678,5725.0
42.3012,5729.0
42.3346,5761.0
42.368,5691.0
42.4015,5527.0
42.4349,5699.0
42.4683,5778.0
42.5017,5588.0
42.5351,5631.0
42.5686,5606.0
42.602,5630.0
42.6354,5534.0
42.6688,5547.0
42.7023,5695.0
42.7357,5598.0
42.7691,5588.0
42.8025,5550.0
42.8359,5476.0
42.8694,5617.0
42.9028,5593.0
42.9362,5622.0
42.9696,5544.0
43.0031,5637.0
43.0365,5612.0
43.0699,5555.0
43.1033,5585.0
43.1368,5438.0
43.1702,5607.0
43.2036,5526.0
43.237,5609.0
43.2704,5570.0
43.3039,5508.0
43.3373,5613.0
43.3707,5566.0
43.4041,5473.0
43.4376,5672.0
43.471,5511.0
43.5044,5572.0
43.5378,5438.0
43.5712,5473.0
43.6047,5477.0
43.6381,5715.0
43.6715,5510.0
43.7049,5713.0
43.7384,5506.0
43.7718,5584.0
43.8052,5454.0
43.8386,5525.0
43.872,5694.0
43.9055,5582.0
43.9389,5651.0
43.9723,5648.0
44.0057,5494.0
44.0392,5484.0
44.0726,5491.0
44.106,5555.0
44.1394,5463.0
44.1729,5554.0
44.2063,5457.0
44.2397,5509.0
44.2731,5580.0
44.3065,5640.0
44.34,5627.0
44.3734,5505.0
44.4068,5394.0
44.4402,5583.0
44.4737,5555.0
44.5071,5587.0
44.5405,5544.0
44.5739,5582.0
44.6073,5367.0
44.6408,5719.0
44.6742,5579.0
44.7076,5575.0
44.741,5653.0
44.7745,5569.0
44.8079,5579.0
44.8413,5502.0
44.8747,5496.0
44.9081,5669.0
44.9416,5604.0
44.975,5420.0
45.0084,5634.0
45.0418,5613.0
45.0753,5561.0
45.1087,5570.0
45.1421,5577.0
45.1755,5478.0
45.2089,5636.0
45.2424,5531.0
45.2758,5524.0
45.3092,5514.0
45.3426,5453.0
45.3761,5596.0
45.4095,5581.0
45.4429,5499.0
45.4763,5605.0
45.5098,5599.0
45.5432,5672.0
45.5766,5475.0
45.61,5652.0
45.6434,5571.0
45.6769,5649.0
45.7103,5580.0
45.7437,5619.0
45.7771,5607.0
45.8106,5597.0
45.844,5598.0
45.8774,5565.0
45.9108,5586.0
45.9442,5711.0
45.9777,5536.0
46.0111,5551.0
46.0445,5555.0
46.0779,5580.0
46.1114,5635.0
46.1448,5327.0
46.1782,5595.0
46.2116,5617.0
46.245,5550.0
46.2785,5524.0
46.3119,5551.0
46.3453,5590.0
46.3787,5698.0
46.4122,5496.0
46.4456,5524.0
46.479,5611.0
46.5124,5619.0
46.5459,5477.0
46.5793,5664.0
46.6127,5661.0
46.6461,5528.0
46.6795,5465.0
46.713,5490.0
46.7464,5585.0
46.7798,5567.0
46.8132,5596.0
46.8467,5499.0
46.8801,5581.0
46.9135,5577.0
46.9469,5669.0
46.9803,5653.0
47.0138,5678.0
47.0472,5648.0
47.0806,5530.0
47.114,5659.0
47.1475,5615.0
47.1809,5697.0
47.2143,5651.0
47.2477,5569.0
47.2811,5584.0
47.3146,5612.0
47.348,5486.0
47.3814,5689.0
47.4148,5634.0
47.4483,5571.0
47.4817,5652.0
47.5151,5563.0
47.5485,5590.0
47.5819,5706.0
47.6154,5688.0
47.6488,5641.0
47.6822,5732.0
47.7156,5692.0
47.7491,5653.0
47.7825,5677.0
47.8159,5616.0
47.8493,5577.0
47.8828,5705.0
47.9162,5807.0
47.9496,5626.0
47.983,5788.0
48.0164,5830.0
48.0499,5773.0
48.0833,5629.0
48.1167,5661.0
48.1501,5872.0
48.1836,5701.0
48.217,5745.0
48.2504,5850.0
48.2838,5850.0
48.3172,6140.0
48.3507,6127.0
48.3841,6280.0
48.4175,6411.0
48.4509,6506.0
48.4844,6892.0
48.5178,6866.0
48.5512,7180.0
48.5846,7655.0
48.618,7952.0
48.6515,8197.0
48.6849,8646.0
48.7183,9226.0
48.7517,9068.0
48.7852,8744.0
48.8186,8206.0
48.852,7837.0
48.8854,7600.0
48.9189,7035.0
48.9523,6510.0
48.9857,6213.0
49.0191,6098.0
49.0525,5967.0
49.086,5791.0
49.1194,5756.0
49.1528,5711.0
49.1862,5688.0
49.2197,5817.0
49.2531,5641.0
49.2865,5776.0
49.3199,5725.0
49.3533,5612.0
49.3868,5661.0
49.4202,5713.0
49.4536,5784.0
49.487,5676.0
49.5205,5801.0
49.5539,5720.0
49.5873,5672.0
49.6207,5809.0
49.6541,5691.0
49.6876,5703.0
49.721,5674.0
49.7544,5751.0
49.7878,5522.0
49.8213,5798.0
49.8547,5575.0
49.8881,5750.0
49.9215,5622.0
49.9549,5705.0
49.9884,5674.0
50.0218,5625.0
50.0552,5590.0
50.0886,5694.0
50.1221,5786.0
50.1555,5902.0
50.1889,5698.0
50.2223,5700.0
50.2558,5515.0
50.2892,5647.0
50.3226,5598.0
50.356,5696.0
50.3894,5660.0
50.4229,5580.0
50.4563,5720.0
50.4897,5688.0
50.5231,5652.0
50.5566,5654.0
50.59,5709.0
50.6234,5666.0
50.6568,5735.0
50.6902,5722.0
50.7237,5538.0
50.7571,5640.0
50.7905,5771.0
50.8239,5873.0
50.8574,5648.0
50.8908,5776.0
50.9242,5649.0
50.9576,5751.0
50.991,5735.0
51.0245,5584.0
51.0579,5611.0
51.0913,5673.0
51.1247,5698.0
51.1582,5642.0
51.1916,5628.0
51.225,5809.0
51.2584,5612.0
51.2919,5823.0
51.3253,5658.0
51.3587,5784.0
51.3921,5748.0
51.4255,5736.0
51.459,5688.0
51.4924,5701.0
51.5258,5668.0
51.5592,5607.0
51.5927,5677.0
51.6261,5694.0
51.6595,5664.0
51.6929,5556.0
51.7263,5624.0
51.7598,5543.0
51.7932,5777.0
51.8266,5672.0
51.86,5684.0
51.8935,5675.0
51.9269,5677.0
51.9603,5769.0
51.9937,5666.0
52.0271,5729.0
52.0606,5657.0
52.094,5693.0
52.1274,5863.0
52.1608,5781.0
52.1943,5724.0
52.2277,5656.0
52.2611,5787.0
52.2945,5798.0
52.3279,5627.0
52.3614,5637.0
52.3948,5587.0
52.4282,5669.0
52.4616,5640.0
52.4951,5682.0
52.5285,5721.0
52.5619,5850.0
52.5953,5778.0
52.6288,5715.0
52.6622,5668.0
52.6956,5742.0
52.729,5719.0
52.7624,5712.0
52.7959,5772.0
52.8293,5712.0
52.8627,5758.0
52.8961,5840.0
52.9296,5739.0
52.963,5643.0
52.9964,5810.0
53.0298,5695.0
53.0632,5781.0
53.0967,5694.0
53.1301,5801.0
53.1635,5708.0
53.1969,5783.0
53.2304,5723.0
53.2638,5788.0
53.2972,5829.0
53.3306,5767.0
53.364,5695.0
53.3975,5951.0
53.4309,5903.0
53.4643,5754.0
53.4977,5701.0
53.5312,5764.0
53.5646,5778.0
53.598,5793.0
53.6314,5967.0
53.6649,5772.0
53.6983,5912.0
53.7317,6019.0
53.7651,5949.0
53.7985,6192.0
53.832,6073.0
53.8654,6150.0
53.8988,6251.0
53.9322,6296.0
53.9657,6457.0
53.9991,6855.0
54.0325,6935.0
54.0659,7157.0
54.0993,7656.0
54.1328,8160.0
54.1662,8538.0
54.1996,9138.0
54.233,9571.0
54.2665,9297.0
54.2999,8814.0
54.3333,8364.0
54.3667,8160.0
54.4001,7849.0
54.4336,7485.0
54.467,7000.0
54.5004,6813.0
54.5338,6475.0
54.5673,6375.0
54.6007,6107.0
54.6341,6206.0
54.6675,6164.0
54.701,6187.0
54.7344,6144.0
54.7678,6008.0
54.8012,6031.0
54.8346,6003.0
54.8681,6018.0
54.9015,5892.0
54.9349,5968.0
54.9683,6122.0
55.0018,6061.0
55.0352,6022.0
55.0686,6164.0
55.102,5976.0
55.1354,6040.0
55.1689,6181.0
55.2023,6171.0
55.2357,6146.0
55.2691,6345.0
55.3026,6371.0
55.336,6369.0
55.3694,6431.0
55.4028,6518.0
55.4362,6649.0
55.4697,6710.0
55.5031,6776.0
55.5365,7007.0
55.5699,6988.0
55.6034,7040.0
55.6368,7253.0
55.6702,7120.0
55.7036,7203.0
55.737,7182.0
55.7705,6887.0
55.8039,6776.0
55.8373,6683.0
55.8707,6279.0
55.9042,6437.0
55.9376,6168.0
55.971,6005.0
56.0044,6053.0
56.0379,6121.0
56.0713,6023.0
56.1047,5964.0
56.1381,5773.0
56.1715,6013.0
56.205,5887.0
56.2384,5869.0
56.2718,5842.0
56.3052,5910.0
56.3387,5898.0
56.3721,5828.0
56.4055,6010.0
56.4389,5861.0
56.4723,5945.0
56.5058,5811.0
56.5392,5770.0
56.5726,5845.0
56.606,5900.0
56.6395,5851.0
56.6729,5779.0
56.7063,5907.0
56.7397,5720.0
56.7731,5818.0
56.8066,5734.0
56.84,5753.0
56.8734,5871.0
56.9068,5860.0
56.9403,5943.0
56.9737,5852.0
57.0071,5706.0
57.0405,5791.0
57.074,5700.0
57.1074,5932.0
57.1408,5783.0
57.1742,5810.0
57.2076,5941.0
57.2411,5802.0
57.2745,5728.0
57.3079,5783.0
57.3413,5770.0
57.3748,5926.0
57.4082,5798.0
57.4416,5935.0
57.475,5740.0
57.5084,5944.0
57.5419,5685.0
57.5753,5746.0
57.6087,5758.0
57.6421,5886.0
57.6756,5700.0
57.709,5668.0
57.7424,5731.0
57.7758,5799.0
57.8092,5852.0
57.8427,5819.0
57.8761,5729.0
57.9095,5738.0
57.9429,5918.0
57.9764,5766.0
58.0098,5691.0
58.0432,5786.0
58.0766,5963.0
58.11,5829.0
58.1435,5813.0
58.1769,5795.0
58.2103,5779.0
58.2437,5838.0
58.2772,5792.0
58.3106,5932.0
58.344,5938.0
58.3774,5788.0
58.4109,5901.0
58.4443,5876.0
58.4777,5855.0
58.5111,5898.0
58.5445,5834.0
58.578,5838.0
58.6114,5939.0
58.6448,5821.0
58.6782,5979.0
58.7117,5973.0
58.7451,5835.0
58.7785,5955.0
58.8119,6029.0
58.8453,5917.0
58.8788,5907.0
58.9122,6026.0
58.9456,6078.0
58.979,6087.0
59.0125,6156.0
59.0459,6266.0
59.0793,6238.0
59.1127,6223.0
59.1461,6206.0
59.1796,6065.0
59.213,6143.0
59.2464,5970.0
59.2798,5910.0
59.3133,5901.0
59.3467,6003.0
59.3801,6022.0
59.4135,5909.0
59.447,5862.0
59.4804,5883.0
59.5138,5959.0
59.5472,5908.0
59.5806,5845.0
59.6141,6044.0
59.6475,6060.0
59.6809,5960.0
59.7143,5935.0
59.7478,5860.0
59.7812,6078.0
59.8146,5910.0
59.848,5907.0
59.8814,6006.0
59.9149,5977.0
59.9483,5987.0
59.9817,5828.0
60.0151,5868.0
60.0486,5897.0
60.082,5764.0
60.1154,5912.0
60.1488,5866.0
60.1822,5975.0
60.2157,5912.0
60.2491,5925.0
60.2825,5993.0
60.3159,6001.0
60.3494,6060.0
60.3828,5837.0
60.4162,6022.0
60.4496,6029.0
60.483,6058.0
60.5165,5889.0
60.5499,6107.0
60.5833,5887.0
60.6167,5977.0
60.6502,6012.0
60.6836,5955.0
60.717,6340.0
60.7504,6135.0
60.7839,6199.0
60.8173,6371.0
60.8507,6399.0
60.8841,6359.0
60.9175,6571.0
60.951,6492.0
60.9844,6580.0
61.0178,6646.0
61.0512,6588.0
61.0847,6584.0
61.1181,6700.0
61.1515,6562.0
61.1849,6611.0
61.2183,6607.0
61.2518,6559.0
61.2852,6384.0
61.3186,6331.0
61.352,6233.0
61.3855,6392.0
61.4189,6240.0
61.4523,6343.0
61.4857,6336.0
61.5191,6398.0
61.5526,6385.0
61.586,6323.0
61.6194,6514.0
61.6528,6567.0
61.6863,6545.0
61.7197,6701.0
61.7531,6449.0
61.7865,6488.0
61.82,6454.0
61.8534,6320.0
61.8868,6396.0
61.9202,6150.0
61.9536,6100.0
61.9871,6083.0
62.0205,5976.0
62.0539,6209.0
62.0873,5935.0
62.1208,6022.0
62.1542,6150.0
62.1876,5877.0
62.221,5884.0
62.2544,5888.0
62.2879,6035.0
62.3213,5900.0
62.3547,5996.0
62.3881,5961.0
62.4216,5977.0
62.455,6111.0
62.4884,5905.0
62.5218,5912.0
62.5552,5903.0
62.5887,5945.0
62.6221,5932.0
62.6555,5915.0
62.6889,6008.0
62.7224,5908.0
62.7558,5904.0
62.7892,5860.0
62.8226,6082.0
62.856,5853.0
62.8895,5984.0
62.9229,5982.0
62.9563,5940.0
62.9897,6044.0
63.0232,5846.0
63.0566,6037.0
63.09,6039.0
63.1234,5942.0
63.1569,5958.0
63.1903,5807.0
63.2237,5934.0
63.2571,5913.0
63.2905,5902.0
63.324,5840.0
63.3574,6102.0
63.3908,5836.0
63.4242,5903.0
63.4577,5910.0
63.4911,5955.0
63.5245,5851.0
63.5579,5971.0
63.5913,5961.0
63.6248,5915.0
63.6582,6028.0
63.6916,5950.0
63.725,5964.0
63.7585,5862.0
63.7919,5998.0
63.8253,5846.0
63.8587,5899.0
63.8921,5939.0
63.9256,5870.0
63.959,6024.0
63.9924,5976.0
64.0258,5962.0
64.0593,5836.0
64.0927,5928.0
64.1261,5997.0
64.1595,5921.0
64.193,5832.0
64.2264,5887.0
64.2598,5925.0
64.2932,5863.0
64.3266,6091.0
64.3601,5784.0
64.3935,5972.0
64.4269,5838.0
64.4603,5975.0
64.4938,6111.0
64.5272,6020.0
64.5606,5895.0
64.594,6058.0
64.6274,6064.0
64.6609,6050.0
64.6943,6030.0
64.7277,5981.0
64.7611,6059.0
64.7946,6078.0
64.828,6093.0
64.8614,5912.0
64.8948,6036.0
64.9282,5958.0
64.9617,5942.0
64.9951,6187.0
65.0285,6121.0
65.0619,5817.0
65.0954,6119.0
65.1288,5929.0
65.1622,5927.0
65.1956,5802.0
65.229,6084.0
65.2625,5897.0
65.2959,5954.0
65.3293,5835.0
65.3627,5864.0
65.3962,6097.0
65.4296,5984.0
65.463,5899.0
65.4964,6102.0
65.5299,5883.0
65.5633,5865.0
65.5967,5935.0
65.6301,5902.0
65.6635,6033.0
65.697,6005.0
65.7304,5946.0
65.7638,5929.0
65.7972,6050.0
65.8307,5963.0
65.8641,5955.0
65.8975,5887.0
65.9309,5993.0
65.9643,5876.0
65.9978,6074.0
66.0312,5932.0
66.0646,6033.0
66.098,6023.0
66.1315,6049.0
66.1649,5990.0
66.1983,5877.0
66.2317,6014.0
66.2651,6036.0
66.2986,6087.0
66.332,5998.0
66.3654,6077.0
66.3988,6042.0
66.4323,5977.0
66.4657,5853.0
66.4991,5977.0
66.5325,5925.0
66.566,5795.0
66.5994,6116.0
66.6328,6058.0
66.6662,5845.0
66.6996,5944.0
66.7331,5999.0
66.7665,5811.0
66.7999,5889.0
66.8333,5858.0
66.8668,5874.0
66.9002,5861.0
66.9336,6112.0
66.967,6138.0
67.0004,6081.0
67.0339,6077.0
67.0673,5911.0
67.1007,6011.0
67.1341,5987.0
67.1676,6005.0
67.201,5907.0
67.2344,5987.0
67.2678,6031.0
67.3012,5883.0
67.3347,5952.0
67.3681,6101.0
67.4015,5982.0
67.4349,5948.0
67.4684,5842.0
67.5018,5881.0
67.5352,5991.0
67.5686,6034.0
67.602,6066.0
67.6355,5888.0
67.6689,6225.0
67.7023,6019.0
67.7357,6090.0
67.7692,5944.0
67.8026,5957.0
67.836,5874.0
67.8694,6057.0
67.9029,5960.0
67.9363,5865.0
67.9697,6015.0
68.0031,5908.0
68.0365,6082.0
68.07,6178.0
68.1034,5993.0
68.1368,5968.0
68.1702,5990.0
68.2037,5916.0
68.2371,6029.0
68.2705,6083.0
68.3039,5909.0
68.3373,6057.0
68.3708,6009.0
68.4042,5901.0
68.4376,5977.0
68.471,5961.0
68.5045,6004.0
68.5379,6026.0
68.5713,5900.0
68.6047,6139.0
68.6381,6178.0
68.6716,6088.0
68.705,6222.0
68.7384,5988.0
68.7718,6057.0
68.8053,6107.0
68.8387,6052.0
68.8721,5965.0
68.9055,5832.0
68.939,5941.0
68.9724,6013.0
69.0058,6115.0
69.0392,5930.0
69.0726,6192.0
69.1061,6064.0
69.1395,6057.0
69.1729,6069.0
69.2063,6129.0
69.2398,6039.0
69.2732,5977.0
69.3066,6035.0
69.34,5982.0
69.3734,6003.0
69.4069,5889.0
69.4403,5934.0
69.4737,6146.0
69.5071,6197.0
69.5406,6053.0
69.574,5991.0
69.6074,5996.0
69.6408,6059.0
69.6742,6111.0
69.7077,6005.0
69.7411,6055.0
69.7745,6014.0
69.8079,6193.0
69.8414,6087.0
69.8748,6169.0
69.9082,6218.0
69.9416,6339.0
69.975,6288.0
69.9918,6366.0