File: herald_visualization/XRD Plotting Scripts (Riley)/Figures/(FeMn)F3/241203-Fe0p75Mn0p25F3-ball_milled_24h-20-70deg-40min.csv
2Theta,Intensity
20.0084,5169.0
20.0418,5275.0
20.0752,5126.0
20.1086,5086.0
20.142,5125.0
20.1755,5178.0
20.2089,4972.0
20.2423,5081.0
20.2757,5149.0
20.3092,5075.0
20.3426,5103.0
20.376,5178.0
20.4094,5209.0
20.4428,5019.0
20.4763,4984.0
20.5097,5022.0
20.5431,4910.0
20.5765,5010.0
20.61,4953.0
20.6434,5019.0
20.6768,4756.0
20.7102,4952.0
20.7437,4833.0
20.7771,4943.0
20.8105,4923.0
20.8439,4778.0
20.8773,4847.0
20.9108,4955.0
20.9442,4862.0
20.9776,4825.0
21.011,4858.0
21.0445,4732.0
21.0779,4773.0
21.1113,4738.0
21.1447,4694.0
21.1781,4674.0
21.2116,4749.0
21.245,4700.0
21.2784,4700.0
21.3118,4777.0
21.3453,4764.0
21.3787,4651.0
21.4121,4651.0
21.4455,4677.0
21.4789,4561.0
21.5124,4598.0
21.5458,4548.0
21.5792,4560.0
21.6126,4504.0
21.6461,4420.0
21.6795,4590.0
21.7129,4547.0
21.7463,4528.0
21.7798,4552.0
21.8132,4415.0
21.8466,4625.0
21.88,4446.0
21.9134,4422.0
21.9469,4370.0
21.9803,4527.0
22.0137,4417.0
22.0471,4440.0
22.0806,4309.0
22.114,4525.0
22.1474,4284.0
22.1808,4396.0
22.2142,4422.0
22.2477,4303.0
22.2811,4309.0
22.3145,4308.0
22.3479,4363.0
22.3814,4250.0
22.4148,4284.0
22.4482,4356.0
22.4816,4347.0
22.515,4200.0
22.5485,4371.0
22.5819,4296.0
22.6153,4346.0
22.6487,4372.0
22.6822,4325.0
22.7156,4378.0
22.749,4331.0
22.7824,4378.0
22.8158,4423.0
22.8493,4359.0
22.8827,4375.0
22.9161,4410.0
22.9495,4397.0
22.983,4469.0
23.0164,4601.0
23.0498,4687.0
23.0832,4655.0
23.1167,4895.0
23.1501,5068.0
23.1835,5190.0
23.2169,5444.0
23.2503,6040.0
23.2838,6248.0
23.3172,6859.0
23.3506,7446.0
23.384,8302.0
23.4175,8869.0
23.4509,9358.0
23.4843,9145.0
23.5177,8574.0
23.5511,7981.0
23.5846,7456.0
23.618,6967.0
23.6514,6541.0
23.6848,6182.0
23.7183,5996.0
23.7517,5537.0
23.7851,5362.0
23.8185,5319.0
23.8519,5060.0
23.8854,5018.0
23.9188,4943.0
23.9522,4610.0
23.9856,4810.0
24.0191,4592.0
24.0525,4642.0
24.0859,4473.0
24.1193,4455.0
24.1528,4463.0
24.1862,4535.0
24.2196,4375.0
24.253,4270.0
24.2864,4237.0
24.3199,4236.0
24.3533,4137.0
24.3867,4132.0
24.4201,4045.0
24.4536,4117.0
24.487,3903.0
24.5204,3969.0
24.5538,4049.0
24.5872,4029.0
24.6207,4015.0
24.6541,3979.0
24.6875,3924.0
24.7209,3850.0
24.7544,3918.0
24.7878,3980.0
24.8212,3987.0
24.8546,4080.0
24.888,3892.0
24.9215,3888.0
24.9549,3806.0
24.9883,3835.0
25.0217,3873.0
25.0552,3918.0
25.0886,3868.0
25.122,3858.0
25.1554,3829.0
25.1888,3875.0
25.2223,3838.0
25.2557,3887.0
25.2891,3881.0
25.3225,3823.0
25.356,3790.0
25.3894,3884.0
25.4228,3866.0
25.4562,3870.0
25.4897,3877.0
25.5231,3799.0
25.5565,3836.0
25.5899,3803.0
25.6233,3960.0
25.6568,3774.0
25.6902,3847.0
25.7236,3808.0
25.757,3706.0
25.7905,3931.0
25.8239,3797.0
25.8573,3863.0
25.8907,3784.0
25.9241,3773.0
25.9576,3787.0
25.991,3870.0
26.0244,3826.0
26.0578,3737.0
26.0913,3831.0
26.1247,3822.0
26.1581,3700.0
26.1915,3719.0
26.2249,3654.0
26.2584,3886.0
26.2918,3651.0
26.3252,3684.0
26.3586,3768.0
26.3921,3726.0
26.4255,3765.0
26.4589,3797.0
26.4923,3728.0
26.5258,3814.0
26.5592,3856.0
26.5926,3718.0
26.626,3630.0
26.6594,3723.0
26.6929,3638.0
26.7263,3723.0
26.7597,3672.0
26.7931,3850.0
26.8266,3746.0
26.86,3740.0
26.8934,3743.0
26.9268,3692.0
26.9602,3711.0
26.9937,3766.0
27.0271,3709.0
27.0605,3743.0
27.0939,3659.0
27.1274,3768.0
27.1608,3752.0
27.1942,3624.0
27.2276,3721.0
27.261,3723.0
27.2945,3687.0
27.3279,3710.0
27.3613,3651.0
27.3947,3736.0
27.4282,3630.0
27.4616,3680.0
27.495,3645.0
27.5284,3717.0
27.5618,3708.0
27.5953,3667.0
27.6287,3667.0
27.6621,3715.0
27.6955,3735.0
27.729,3712.0
27.7624,3702.0
27.7958,3680.0
27.8292,3586.0
27.8627,3690.0
27.8961,3570.0
27.9295,3710.0
27.9629,3694.0
27.9963,3595.0
28.0298,3682.0
28.0632,3713.0
28.0966,3553.0
28.13,3523.0
28.1635,3696.0
28.1969,3633.0
28.2303,3617.0
28.2637,3583.0
28.2971,3638.0
28.3306,3636.0
28.364,3716.0
28.3974,3591.0
28.4308,3621.0
28.4643,3678.0
28.4977,3591.0
28.5311,3756.0
28.5645,3570.0
28.5979,3702.0
28.6314,3590.0
28.6648,3669.0
28.6982,3639.0
28.7316,3491.0
28.7651,3626.0
28.7985,3612.0
28.8319,3588.0
28.8653,3572.0
28.8988,3500.0
28.9322,3553.0
28.9656,3603.0
28.999,3598.0
29.0324,3504.0
29.0659,3533.0
29.0993,3509.0
29.1327,3507.0
29.1661,3444.0
29.1996,3554.0
29.233,3591.0
29.2664,3520.0
29.2998,3575.0
29.3332,3478.0
29.3667,3507.0
29.4001,3566.0
29.4335,3502.0
29.4669,3494.0
29.5004,3481.0
29.5338,3509.0
29.5672,3429.0
29.6006,3490.0
29.634,3525.0
29.6675,3456.0
29.7009,3694.0
29.7343,3499.0
29.7677,3611.0
29.8012,3477.0
29.8346,3431.0
29.868,3624.0
29.9014,3584.0
29.9348,3467.0
29.9683,3546.0
30.0017,3551.0
30.0351,3470.0
30.0685,3497.0
30.102,3589.0
30.1354,3577.0
30.1688,3468.0
30.2022,3514.0
30.2357,3423.0
30.2691,3427.0
30.3025,3500.0
30.3359,3433.0
30.3693,3528.0
30.4028,3538.0
30.4362,3520.0
30.4696,3515.0
30.503,3404.0
30.5365,3474.0
30.5699,3450.0
30.6033,3416.0
30.6367,3396.0
30.6701,3369.0
30.7036,3368.0
30.737,3375.0
30.7704,3363.0
30.8038,3376.0
30.8373,3427.0
30.8707,3406.0
30.9041,3443.0
30.9375,3512.0
30.9709,3496.0
31.0044,3427.0
31.0378,3335.0
31.0712,3401.0
31.1046,3450.0
31.1381,3384.0
31.1715,3450.0
31.2049,3357.0
31.2383,3427.0
31.2718,3297.0
31.3052,3444.0
31.3386,3413.0
31.372,3462.0
31.4054,3304.0
31.4389,3411.0
31.4723,3447.0
31.5057,3532.0
31.5391,3374.0
31.5726,3395.0
31.606,3301.0
31.6394,3252.0
31.6728,3364.0
31.7062,3348.0
31.7397,3334.0
31.7731,3333.0
31.8065,3389.0
31.8399,3451.0
31.8734,3449.0
31.9068,3279.0
31.9402,3394.0
31.9736,3415.0
32.007,3452.0
32.0405,3525.0
32.0739,3279.0
32.1073,3263.0
32.1407,3384.0
32.1742,3386.0
32.2076,3378.0
32.241,3475.0
32.2744,3509.0
32.3078,3510.0
32.3413,3594.0
32.3747,3508.0
32.4081,3442.0
32.4415,3398.0
32.475,3525.0
32.5084,3472.0
32.5418,3365.0
32.5752,3411.0
32.6087,3423.0
32.6421,3499.0
32.6755,3525.0
32.7089,3439.0
32.7423,3537.0
32.7758,3453.0
32.8092,3591.0
32.8426,3699.0
32.876,3548.0
32.9095,3768.0
32.9429,3755.0
32.9763,3890.0
33.0097,3794.0
33.0431,3898.0
33.0766,3899.0
33.11,3870.0
33.1434,4011.0
33.1768,3825.0
33.2103,3808.0
33.2437,3714.0
33.2771,3693.0
33.3105,3764.0
33.3439,3693.0
33.3774,3533.0
33.4108,3562.0
33.4442,3556.0
33.4776,3604.0
33.5111,3564.0
33.5445,3571.0
33.5779,3577.0
33.6113,3618.0
33.6448,3529.0
33.6782,3603.0
33.7116,3462.0
33.745,3578.0
33.7784,3460.0
33.8119,3585.0
33.8453,3593.0
33.8787,3463.0
33.9121,3493.0
33.9456,3464.0
33.979,3500.0
34.0124,3450.0
34.0458,3600.0
34.0792,3720.0
34.1127,3537.0
34.1461,3610.0
34.1795,3430.0
34.2129,3372.0
34.2464,3508.0
34.2798,3449.0
34.3132,3342.0
34.3466,3391.0
34.38,3395.0
34.4135,3335.0
34.4469,3321.0
34.4803,3302.0
34.5137,3300.0
34.5472,3404.0
34.5806,3287.0
34.614,3228.0
34.6474,3299.0
34.6808,3348.0
34.7143,3340.0
34.7477,3235.0
34.7811,3296.0
34.8145,3289.0
34.848,3198.0
34.8814,3159.0
34.9148,3297.0
34.9482,3231.0
34.9817,3341.0
35.0151,3417.0
35.0485,3415.0
35.0819,3253.0
35.1153,3374.0
35.1488,3281.0
35.1822,3232.0
35.2156,3321.0
35.249,3278.0
35.2825,3214.0
35.3159,3299.0
35.3493,3179.0
35.3827,3245.0
35.4161,3336.0
35.4496,3273.0
35.483,3265.0
35.5164,3174.0
35.5498,3241.0
35.5833,3189.0
35.6167,3196.0
35.6501,3246.0
35.6835,3226.0
35.7169,3306.0
35.7504,3127.0
35.7838,3211.0
35.8172,3178.0
35.8506,3079.0
35.8841,3127.0
35.9175,3131.0
35.9509,3066.0
35.9843,3186.0
36.0178,3254.0
36.0512,3177.0
36.0846,3180.0
36.118,3170.0
36.1514,3246.0
36.1849,3128.0
36.2183,3218.0
36.2517,3165.0
36.2851,3149.0
36.3186,3225.0
36.352,3248.0
36.3854,3224.0
36.4188,3155.0
36.4522,3152.0
36.4857,3232.0
36.5191,3205.0
36.5525,3167.0
36.5859,3195.0
36.6194,3143.0
36.6528,3135.0
36.6862,3253.0
36.7196,3152.0
36.753,3153.0
36.7865,3166.0
36.8199,3288.0
36.8533,3272.0
36.8867,3183.0
36.9202,3205.0
36.9536,3229.0
36.987,3142.0
37.0204,3207.0
37.0538,3295.0
37.0873,3263.0
37.1207,3128.0
37.1541,3256.0
37.1875,3218.0
37.221,2999.0
37.2544,3205.0
37.2878,3148.0
37.3212,3104.0
37.3547,3149.0
37.3881,3198.0
37.4215,3262.0
37.4549,3255.0
37.4883,3130.0
37.5218,3213.0
37.5552,3122.0
37.5886,3127.0
37.622,3115.0
37.6555,3192.0
37.6889,3164.0
37.7223,3207.0
37.7557,3109.0
37.7891,3223.0
37.8226,3154.0
37.856,3150.0
37.8894,3189.0
37.9228,3179.0
37.9563,3183.0
37.9897,3213.0
38.0231,3164.0
38.0565,3140.0
38.0899,3099.0
38.1234,3174.0
38.1568,3182.0
38.1902,3238.0
38.2236,3208.0
38.2571,3181.0
38.2905,3195.0
38.3239,3250.0
38.3573,3243.0
38.3908,3238.0
38.4242,3131.0
38.4576,3135.0
38.491,3112.0
38.5244,3241.0
38.5579,3295.0
38.5913,3044.0
38.6247,3275.0
38.6581,3144.0
38.6916,3184.0
38.725,3238.0
38.7584,3149.0
38.7918,3044.0
38.8252,3212.0
38.8587,3129.0
38.8921,3213.0
38.9255,3155.0
38.9589,3199.0
38.9924,3199.0
39.0258,3215.0
39.0592,3202.0
39.0926,3266.0
39.126,3091.0
39.1595,3248.0
39.1929,3189.0
39.2263,3185.0
39.2597,3223.0
39.2932,3186.0
39.3266,3216.0
39.36,3311.0
39.3934,3184.0
39.4269,3391.0
39.4603,3348.0
39.4937,3358.0
39.5271,3456.0
39.5605,3286.0
39.594,3421.0
39.6274,3622.0
39.6608,3568.0
39.6942,3537.0
39.7277,3587.0
39.7611,3686.0
39.7945,3733.0
39.8279,3636.0
39.8613,3721.0
39.8948,3602.0
39.9282,3517.0
39.9616,3566.0
39.995,3418.0
40.0285,3486.0
40.0619,3436.0
40.0953,3372.0
40.1287,3407.0
40.1621,3347.0
40.1956,3413.0
40.229,3384.0
40.2624,3278.0
40.2958,3271.0
40.3293,3248.0
40.3627,3259.0
40.3961,3270.0
40.4295,3329.0
40.4629,3378.0
40.4964,3202.0
40.5298,3320.0
40.5632,3136.0
40.5966,3264.0
40.6301,3191.0
40.6635,3270.0
40.6969,3165.0
40.7303,3239.0
40.7638,3214.0
40.7972,3226.0
40.8306,3155.0
40.864,3277.0
40.8974,3171.0
40.9309,3215.0
40.9643,3187.0
40.9977,3242.0
41.0311,3272.0
41.0646,3202.0
41.098,3225.0
41.1314,3196.0
41.1648,3275.0
41.1982,3119.0
41.2317,3158.0
41.2651,3086.0
41.2985,3221.0
41.3319,3249.0
41.3654,3180.0
41.3988,3253.0
41.4322,3301.0
41.4656,3222.0
41.499,3127.0
41.5325,3147.0
41.5659,3134.0
41.5993,3197.0
41.6327,3135.0
41.6662,3177.0
41.6996,3147.0
41.733,3158.0
41.7664,3143.0
41.7999,3150.0
41.8333,3148.0
41.8667,3174.0
41.9001,3142.0
41.9335,3213.0
41.967,3191.0
42.0004,3261.0
42.0338,3172.0
42.0672,3052.0
42.1007,3296.0
42.1341,3068.0
42.1675,3179.0
42.2009,3238.0
42.2343,3215.0
42.2678,3152.0
42.3012,3118.0
42.3346,3155.0
42.368,3081.0
42.4015,3125.0
42.4349,3151.0
42.4683,3172.0
42.5017,3148.0
42.5351,3167.0
42.5686,3198.0
42.602,3170.0
42.6354,3237.0
42.6688,3091.0
42.7023,3091.0
42.7357,3117.0
42.7691,3108.0
42.8025,3161.0
42.8359,3101.0
42.8694,3118.0
42.9028,3137.0
42.9362,3054.0
42.9696,3189.0
43.0031,3178.0
43.0365,3271.0
43.0699,3084.0
43.1033,3136.0
43.1368,3132.0
43.1702,3175.0
43.2036,3122.0
43.237,3085.0
43.2704,3065.0
43.3039,3159.0
43.3373,3033.0
43.3707,3163.0
43.4041,3117.0
43.4376,3045.0
43.471,3064.0
43.5044,3227.0
43.5378,3079.0
43.5712,3202.0
43.6047,3025.0
43.6381,3084.0
43.6715,3198.0
43.7049,3098.0
43.7384,3179.0
43.7718,3147.0
43.8052,3137.0
43.8386,3059.0
43.872,3093.0
43.9055,3117.0
43.9389,3053.0
43.9723,3140.0
44.0057,3168.0
44.0392,3151.0
44.0726,3165.0
44.106,3071.0
44.1394,3028.0
44.1729,3165.0
44.2063,3040.0
44.2397,3060.0
44.2731,3024.0
44.3065,3226.0
44.34,3239.0
44.3734,3164.0
44.4068,3150.0
44.4402,3043.0
44.4737,3081.0
44.5071,3116.0
44.5405,3074.0
44.5739,3035.0
44.6073,3088.0
44.6408,3069.0
44.6742,3065.0
44.7076,3182.0
44.741,3006.0
44.7745,3046.0
44.8079,3048.0
44.8413,3117.0
44.8747,3040.0
44.9081,3098.0
44.9416,3064.0
44.975,3124.0
45.0084,3095.0
45.0418,3140.0
45.0753,3070.0
45.1087,3064.0
45.1421,3105.0
45.1755,3073.0
45.2089,3020.0
45.2424,3087.0
45.2758,3177.0
45.3092,3066.0
45.3426,3064.0
45.3761,3160.0
45.4095,3130.0
45.4429,3060.0
45.4763,3065.0
45.5098,3135.0
45.5432,3135.0
45.5766,3127.0
45.61,3118.0
45.6434,3062.0
45.6769,3136.0
45.7103,3121.0
45.7437,3093.0
45.7771,3036.0
45.8106,3106.0
45.844,3079.0
45.8774,3122.0
45.9108,3174.0
45.9442,3137.0
45.9777,3097.0
46.0111,3030.0
46.0445,3060.0
46.0779,3170.0
46.1114,3105.0
46.1448,3055.0
46.1782,3090.0
46.2116,3009.0
46.245,3019.0
46.2785,3046.0
46.3119,3112.0
46.3453,3061.0
46.3787,3137.0
46.4122,3184.0
46.4456,3179.0
46.479,3106.0
46.5124,3092.0
46.5459,3107.0
46.5793,3091.0
46.6127,3061.0
46.6461,3070.0
46.6795,3150.0
46.713,3033.0
46.7464,3045.0
46.7798,3097.0
46.8132,3074.0
46.8467,3158.0
46.8801,3022.0
46.9135,3154.0
46.9469,3098.0
46.9803,3019.0
47.0138,3050.0
47.0472,3119.0
47.0806,3101.0
47.114,3130.0
47.1475,3181.0
47.1809,3091.0
47.2143,3011.0
47.2477,2993.0
47.2811,3048.0
47.3146,3172.0
47.348,3075.0
47.3814,3158.0
47.4148,3153.0
47.4483,3190.0
47.4817,3032.0
47.5151,3117.0
47.5485,3096.0
47.5819,3025.0
47.6154,3196.0
47.6488,3059.0
47.6822,3169.0
47.7156,3217.0
47.7491,3191.0
47.7825,3115.0
47.8159,3232.0
47.8493,3107.0
47.8828,3290.0
47.9162,3235.0
47.9496,3230.0
47.983,3384.0
48.0164,3418.0
48.0499,3445.0
48.0833,3441.0
48.1167,3554.0
48.1501,3645.0
48.1836,3624.0
48.217,3653.0
48.2504,3755.0
48.2838,3875.0
48.3172,3971.0
48.3507,3995.0
48.3841,4004.0
48.4175,4104.0
48.4509,3798.0
48.4844,4041.0
48.5178,3820.0
48.5512,3744.0
48.5846,3619.0
48.618,3693.0
48.6515,3650.0
48.6849,3553.0
48.7183,3461.0
48.7517,3411.0
48.7852,3465.0
48.8186,3360.0
48.852,3372.0
48.8854,3333.0
48.9189,3341.0
48.9523,3307.0
48.9857,3352.0
49.0191,3209.0
49.0525,3266.0
49.086,3210.0
49.1194,3191.0
49.1528,3158.0
49.1862,3166.0
49.2197,3269.0
49.2531,3223.0
49.2865,3151.0
49.3199,3130.0
49.3533,3186.0
49.3868,3128.0
49.4202,3113.0
49.4536,3171.0
49.487,3163.0
49.5205,3085.0
49.5539,3136.0
49.5873,3067.0
49.6207,3138.0
49.6541,3065.0
49.6876,3182.0
49.721,3181.0
49.7544,3125.0
49.7878,3029.0
49.8213,3136.0
49.8547,3218.0
49.8881,3108.0
49.9215,3152.0
49.9549,3230.0
49.9884,2996.0
50.0218,3146.0
50.0552,3226.0
50.0886,3093.0
50.1221,3099.0
50.1555,3054.0
50.1889,3023.0
50.2223,3015.0
50.2558,3060.0
50.2892,3085.0
50.3226,3051.0
50.356,3109.0
50.3894,3123.0
50.4229,3034.0
50.4563,3100.0
50.4897,3058.0
50.5231,3105.0
50.5566,3036.0
50.59,2929.0
50.6234,3032.0
50.6568,3002.0
50.6902,2940.0
50.7237,3062.0
50.7571,2992.0
50.7905,3041.0
50.8239,3079.0
50.8574,2993.0
50.8908,3065.0
50.9242,2990.0
50.9576,3067.0
50.991,2899.0
51.0245,2945.0
51.0579,2973.0
51.0913,3064.0
51.1247,3046.0
51.1582,2960.0
51.1916,3083.0
51.225,2929.0
51.2584,3021.0
51.2919,2992.0
51.3253,3020.0
51.3587,3056.0
51.3921,2988.0
51.4255,2948.0
51.459,2916.0
51.4924,3001.0
51.5258,2990.0
51.5592,2966.0
51.5927,3041.0
51.6261,3095.0
51.6595,3083.0
51.6929,3056.0
51.7263,2980.0
51.7598,3160.0
51.7932,3033.0
51.8266,3112.0
51.86,2996.0
51.8935,3065.0
51.9269,3079.0
51.9603,3074.0
51.9937,2983.0
52.0271,3080.0
52.0606,2955.0
52.094,3027.0
52.1274,2995.0
52.1608,3075.0
52.1943,3019.0
52.2277,2987.0
52.2611,3039.0
52.2945,3096.0
52.3279,2969.0
52.3614,3004.0
52.3948,3107.0
52.4282,2992.0
52.4616,3115.0
52.4951,3092.0
52.5285,3143.0
52.5619,3066.0
52.5953,3003.0
52.6288,3033.0
52.6622,3159.0
52.6956,3087.0
52.729,3155.0
52.7624,3071.0
52.7959,3066.0
52.8293,3129.0
52.8627,3162.0
52.8961,3176.0
52.9296,3034.0
52.963,3119.0
52.9964,3080.0
53.0298,3202.0
53.0632,3103.0
53.0967,3200.0
53.1301,3159.0
53.1635,3232.0
53.1969,3168.0
53.2304,3165.0
53.2638,3208.0
53.2972,3300.0
53.3306,3282.0
53.364,3278.0
53.3975,3174.0
53.4309,3277.0
53.4643,3311.0
53.4977,3285.0
53.5312,3307.0
53.5646,3380.0
53.598,3439.0
53.6314,3507.0
53.6649,3562.0
53.6983,3583.0
53.7317,3638.0
53.7651,3607.0
53.7985,3846.0
53.832,3762.0
53.8654,3774.0
53.8988,3849.0
53.9322,3860.0
53.9657,3905.0
53.9991,3941.0
54.0325,3879.0
54.0659,3757.0
54.0993,3806.0
54.1328,3728.0
54.1662,3674.0
54.1996,3645.0
54.233,3489.0
54.2665,3554.0
54.2999,3556.0
54.3333,3546.0
54.3667,3448.0
54.4001,3600.0
54.4336,3328.0
54.467,3490.0
54.5004,3404.0
54.5338,3384.0
54.5673,3427.0
54.6007,3420.0
54.6341,3339.0
54.6675,3347.0
54.701,3329.0
54.7344,3433.0
54.7678,3337.0
54.8012,3270.0
54.8346,3308.0
54.8681,3280.0
54.9015,3257.0
54.9349,3399.0
54.9683,3426.0
55.0018,3389.0
55.0352,3356.0
55.0686,3460.0
55.102,3307.0
55.1354,3399.0
55.1689,3363.0
55.2023,3363.0
55.2357,3422.0
55.2691,3527.0
55.3026,3502.0
55.336,3435.0
55.3694,3370.0
55.4028,3395.0
55.4362,3427.0
55.4697,3396.0
55.5031,3274.0
55.5365,3281.0
55.5699,3285.0
55.6034,3212.0
55.6368,3225.0
55.6702,3234.0
55.7036,3185.0
55.737,3344.0
55.7705,3178.0
55.8039,3066.0
55.8373,3228.0
55.8707,3098.0
55.9042,3113.0
55.9376,3019.0
55.971,3219.0
56.0044,3209.0
56.0379,3137.0
56.0713,3120.0
56.1047,3137.0
56.1381,3049.0
56.1715,3124.0
56.205,3068.0
56.2384,3024.0
56.2718,3098.0
56.3052,3088.0
56.3387,3266.0
56.3721,3109.0
56.4055,3107.0
56.4389,3046.0
56.4723,3106.0
56.5058,3014.0
56.5392,3093.0
56.5726,3008.0
56.606,3071.0
56.6395,2935.0
56.6729,3167.0
56.7063,3100.0
56.7397,3092.0
56.7731,3090.0
56.8066,3043.0
56.84,2972.0
56.8734,3107.0
56.9068,3106.0
56.9403,3127.0
56.9737,3117.0
57.0071,3065.0
57.0405,3071.0
57.074,2897.0
57.1074,3027.0
57.1408,2931.0
57.1742,3034.0
57.2076,2997.0
57.2411,3001.0
57.2745,3057.0
57.3079,3050.0
57.3413,3138.0
57.3748,3091.0
57.4082,3069.0
57.4416,3072.0
57.475,3150.0
57.5084,3001.0
57.5419,2990.0
57.5753,3102.0
57.6087,3019.0
57.6421,3139.0
57.6756,2952.0
57.709,2978.0
57.7424,3051.0
57.7758,2996.0
57.8092,3061.0
57.8427,3009.0
57.8761,2991.0
57.9095,3055.0
57.9429,3101.0
57.9764,3034.0
58.0098,3054.0
58.0432,3001.0
58.0766,3093.0
58.11,3032.0
58.1435,3077.0
58.1769,2933.0
58.2103,3033.0
58.2437,2957.0
58.2772,3051.0
58.3106,3052.0
58.344,3055.0
58.3774,2982.0
58.4109,3008.0
58.4443,3161.0
58.4777,3004.0
58.5111,3032.0
58.5445,3150.0
58.578,3147.0
58.6114,3046.0
58.6448,3142.0
58.6782,3013.0
58.7117,3097.0
58.7451,3150.0
58.7785,3117.0
58.8119,3184.0
58.8453,3089.0
58.8788,3121.0
58.9122,3122.0
58.9456,3131.0
58.979,3106.0
59.0125,3080.0
59.0459,3045.0
59.0793,3058.0
59.1127,3018.0
59.1461,2994.0
59.1796,3023.0
59.213,3111.0
59.2464,2957.0
59.2798,3101.0
59.3133,3053.0
59.3467,3043.0
59.3801,2880.0
59.4135,3050.0
59.447,3075.0
59.4804,3029.0
59.5138,3037.0
59.5472,3060.0
59.5806,2973.0
59.6141,2977.0
59.6475,3060.0
59.6809,3044.0
59.7143,3083.0
59.7478,2892.0
59.7812,3074.0
59.8146,2994.0
59.848,3015.0
59.8814,3085.0
59.9149,3124.0
59.9483,2973.0
59.9817,3073.0
60.0151,3071.0
60.0486,3106.0
60.082,3097.0
60.1154,3029.0
60.1488,3091.0
60.1822,3146.0
60.2157,3167.0
60.2491,3137.0
60.2825,3134.0
60.3159,3133.0
60.3494,3254.0
60.3828,3062.0
60.4162,3137.0
60.4496,3135.0
60.483,3246.0
60.5165,3258.0
60.5499,3286.0
60.5833,3219.0
60.6167,3205.0
60.6502,3154.0
60.6836,3249.0
60.717,3287.0
60.7504,3072.0
60.7839,3202.0
60.8173,3278.0
60.8507,3234.0
60.8841,3178.0
60.9175,3135.0
60.951,3257.0
60.9844,3224.0
61.0178,3100.0
61.0512,3197.0
61.0847,3185.0
61.1181,3166.0
61.1515,3195.0
61.1849,3207.0
61.2183,3134.0
61.2518,3130.0
61.2852,3248.0
61.3186,3259.0
61.352,3166.0
61.3855,3176.0
61.4189,3099.0
61.4523,3167.0
61.4857,3151.0
61.5191,3151.0
61.5526,3167.0
61.586,3164.0
61.6194,3061.0
61.6528,3124.0
61.6863,3120.0
61.7197,3191.0
61.7531,3140.0
61.7865,3200.0
61.82,3068.0
61.8534,3163.0
61.8868,3068.0
61.9202,3019.0
61.9536,3176.0
61.9871,3176.0
62.0205,3122.0
62.0539,3079.0
62.0873,3054.0
62.1208,3209.0
62.1542,3043.0
62.1876,3122.0
62.221,3038.0
62.2544,3114.0
62.2879,3052.0
62.3213,3174.0
62.3547,3133.0
62.3881,3213.0
62.4216,3050.0
62.455,3182.0
62.4884,3064.0
62.5218,3148.0
62.5552,2997.0
62.5887,3004.0
62.6221,3165.0
62.6555,3035.0
62.6889,3043.0
62.7224,3077.0
62.7558,3138.0
62.7892,3117.0
62.8226,3025.0
62.856,3012.0
62.8895,3070.0
62.9229,3096.0
62.9563,3127.0
62.9897,3109.0
63.0232,3026.0
63.0566,2963.0
63.09,3027.0
63.1234,2912.0
63.1569,2979.0
63.1903,3036.0
63.2237,3050.0
63.2571,3021.0
63.2905,2986.0
63.324,3061.0
63.3574,3064.0
63.3908,3088.0
63.4242,3070.0
63.4577,3004.0
63.4911,3046.0
63.5245,3065.0
63.5579,3025.0
63.5913,2998.0
63.6248,3065.0
63.6582,3056.0
63.6916,3041.0
63.725,3030.0
63.7585,2948.0
63.7919,3060.0
63.8253,2912.0
63.8587,2928.0
63.8921,3058.0
63.9256,3092.0
63.959,3104.0
63.9924,2995.0
64.0258,3084.0
64.0593,3024.0
64.0927,3043.0
64.1261,2989.0
64.1595,2985.0
64.193,2920.0
64.2264,2964.0
64.2598,3064.0
64.2932,3041.0
64.3266,2993.0
64.3601,3017.0
64.3935,3104.0
64.4269,3095.0
64.4603,3075.0
64.4938,3076.0
64.5272,2998.0
64.5606,2924.0
64.594,3080.0
64.6274,3032.0
64.6609,3137.0
64.6943,3006.0
64.7277,3081.0
64.7611,3089.0
64.7946,3039.0
64.828,3042.0
64.8614,3006.0
64.8948,2909.0
64.9282,3064.0
64.9617,3030.0
64.9951,2962.0
65.0285,3085.0
65.0619,3166.0
65.0954,3099.0
65.1288,3058.0
65.1622,3074.0
65.1956,3011.0
65.229,2881.0
65.2625,3034.0
65.2959,3027.0
65.3293,3023.0
65.3627,3073.0
65.3962,3004.0
65.4296,3008.0
65.463,2942.0
65.4964,2990.0
65.5299,3010.0
65.5633,2987.0
65.5967,3020.0
65.6301,3065.0
65.6635,3004.0
65.697,2957.0
65.7304,2998.0
65.7638,3067.0
65.7972,3030.0
65.8307,3109.0
65.8641,3027.0
65.8975,3004.0
65.9309,3053.0
65.9643,3019.0
65.9978,3023.0
66.0312,3027.0
66.0646,3010.0
66.098,2917.0
66.1315,3054.0
66.1649,3052.0
66.1983,2979.0
66.2317,2986.0
66.2651,2992.0
66.2986,2977.0
66.332,3010.0
66.3654,3049.0
66.3988,2902.0
66.4323,3006.0
66.4657,2889.0
66.4991,2948.0
66.5325,3071.0
66.566,2969.0
66.5994,3015.0
66.6328,2990.0
66.6662,3010.0
66.6996,2941.0
66.7331,2919.0
66.7665,3014.0
66.7999,3101.0
66.8333,3041.0
66.8668,3005.0
66.9002,2997.0
66.9336,2967.0
66.967,2966.0
67.0004,3010.0
67.0339,2949.0
67.0673,2969.0
67.1007,3048.0
67.1341,3073.0
67.1676,3007.0
67.201,3099.0
67.2344,3009.0
67.2678,3003.0
67.3012,3019.0
67.3347,2969.0
67.3681,3042.0
67.4015,3163.0
67.4349,3040.0
67.4684,3002.0
67.5018,2993.0
67.5352,3045.0
67.5686,2948.0
67.602,3036.0
67.6355,2988.0
67.6689,3086.0
67.7023,3025.0
67.7357,3028.0
67.7692,3032.0
67.8026,3032.0
67.836,3101.0
67.8694,2979.0
67.9029,2942.0
67.9363,2943.0
67.9697,2894.0
68.0031,2965.0
68.0365,3034.0
68.07,3100.0
68.1034,2917.0
68.1368,3028.0
68.1702,2970.0
68.2037,2951.0
68.2371,2992.0
68.2705,3096.0
68.3039,2986.0
68.3373,3001.0
68.3708,2941.0
68.4042,2929.0
68.4376,3043.0
68.471,3040.0
68.5045,2956.0
68.5379,3014.0
68.5713,2946.0
68.6047,2976.0
68.6381,3015.0
68.6716,3098.0
68.705,3030.0
68.7384,3088.0
68.7718,3029.0
68.8053,3093.0
68.8387,2999.0
68.8721,3119.0
68.9055,3168.0
68.939,3075.0
68.9724,3029.0
69.0058,3086.0
69.0392,2943.0
69.0726,3007.0
69.1061,3120.0
69.1395,3092.0
69.1729,3121.0
69.2063,3099.0
69.2398,3067.0
69.2732,2995.0
69.3066,3208.0
69.34,3010.0
69.3734,3019.0
69.4069,3098.0
69.4403,3086.0
69.4737,3144.0
69.5071,3183.0
69.5406,3080.0
69.574,3021.0
69.6074,3116.0
69.6408,3107.0
69.6742,3089.0
69.7077,3195.0
69.7411,3114.0
69.7745,3178.0
69.8079,3209.0
69.8414,3083.0
69.8748,3092.0
69.9082,3202.0
69.9416,3241.0
69.975,3118.0
69.9918,3178.0