File: herald_visualization/XRD_Plotting/Figures/(FeMn)F3/241203-Fe0p56Mn0p44F3-ball_milled_24h-20-70deg-40min.csv
2Theta,Intensity
20.0084,6853.0
20.0418,6743.0
20.0752,6878.0
20.1086,6700.0
20.142,6719.0
20.1755,6720.0
20.2089,6664.0
20.2423,6816.0
20.2757,6813.0
20.3092,6555.0
20.3426,6665.0
20.376,6480.0
20.4094,6591.0
20.4428,6582.0
20.4763,6464.0
20.5097,6432.0
20.5431,6493.0
20.5765,6494.0
20.61,6510.0
20.6434,6564.0
20.6768,6448.0
20.7102,6533.0
20.7437,6398.0
20.7771,6268.0
20.8105,6218.0
20.8439,6633.0
20.8773,6384.0
20.9108,6411.0
20.9442,6201.0
20.9776,6188.0
21.011,6192.0
21.0445,6307.0
21.0779,6327.0
21.1113,6343.0
21.1447,6237.0
21.1781,6303.0
21.2116,6131.0
21.245,6356.0
21.2784,6297.0
21.3118,6127.0
21.3453,6212.0
21.3787,6135.0
21.4121,6108.0
21.4455,6166.0
21.4789,6171.0
21.5124,6218.0
21.5458,6114.0
21.5792,6065.0
21.6126,6136.0
21.6461,6059.0
21.6795,6046.0
21.7129,5880.0
21.7463,6094.0
21.7798,5927.0
21.8132,6005.0
21.8466,6072.0
21.88,6044.0
21.9134,6103.0
21.9469,5934.0
21.9803,5884.0
22.0137,5967.0
22.0471,5976.0
22.0806,5923.0
22.114,5854.0
22.1474,5881.0
22.1808,5825.0
22.2142,5856.0
22.2477,5770.0
22.2811,5842.0
22.3145,5835.0
22.3479,5767.0
22.3814,5821.0
22.4148,5762.0
22.4482,5815.0
22.4816,5879.0
22.515,5663.0
22.5485,5634.0
22.5819,5642.0
22.6153,5831.0
22.6487,5692.0
22.6822,5742.0
22.7156,5727.0
22.749,5871.0
22.7824,5666.0
22.8158,5855.0
22.8493,5851.0
22.8827,5874.0
22.9161,5819.0
22.9495,5968.0
22.983,5914.0
23.0164,5952.0
23.0498,5861.0
23.0832,5770.0
23.1167,6069.0
23.1501,6040.0
23.1835,6083.0
23.2169,6121.0
23.2503,6246.0
23.2838,6499.0
23.3172,6804.0
23.3506,7054.0
23.384,7506.0
23.4175,7716.0
23.4509,8707.0
23.4843,9297.0
23.5177,10089.0
23.5511,11193.0
23.5846,11868.0
23.618,12318.0
23.6514,11893.0
23.6848,11012.0
23.7183,10169.0
23.7517,9521.0
23.7851,9102.0
23.8185,8683.0
23.8519,8236.0
23.8854,7690.0
23.9188,7515.0
23.9522,7334.0
23.9856,7136.0
24.0191,7103.0
24.0525,6706.0
24.0859,6731.0
24.1193,6633.0
24.1528,6463.0
24.1862,6475.0
24.2196,6482.0
24.253,6394.0
24.2864,6368.0
24.3199,6227.0
24.3533,5867.0
24.3867,5905.0
24.4201,5769.0
24.4536,5732.0
24.487,5694.0
24.5204,5424.0
24.5538,5692.0
24.5872,5497.0
24.6207,5339.0
24.6541,5462.0
24.6875,5559.0
24.7209,5424.0
24.7544,5441.0
24.7878,5373.0
24.8212,5439.0
24.8546,5414.0
24.888,5337.0
24.9215,5198.0
24.9549,5302.0
24.9883,5220.0
25.0217,5380.0
25.0552,5164.0
25.0886,5230.0
25.122,5343.0
25.1554,5208.0
25.1888,5317.0
25.2223,5126.0
25.2557,5272.0
25.2891,5243.0
25.3225,5127.0
25.356,5146.0
25.3894,5266.0
25.4228,5085.0
25.4562,5189.0
25.4897,5287.0
25.5231,5241.0
25.5565,5112.0
25.5899,5232.0
25.6233,5201.0
25.6568,5167.0
25.6902,5094.0
25.7236,5227.0
25.757,5184.0
25.7905,5049.0
25.8239,5079.0
25.8573,5093.0
25.8907,5185.0
25.9241,5059.0
25.9576,5081.0
25.991,5009.0
26.0244,5143.0
26.0578,5053.0
26.0913,5020.0
26.1247,5109.0
26.1581,5049.0
26.1915,5074.0
26.2249,5007.0
26.2584,5091.0
26.2918,5063.0
26.3252,5022.0
26.3586,4980.0
26.3921,5103.0
26.4255,4964.0
26.4589,4982.0
26.4923,5080.0
26.5258,5115.0
26.5592,4953.0
26.5926,4981.0
26.626,4952.0
26.6594,5027.0
26.6929,5061.0
26.7263,5235.0
26.7597,5044.0
26.7931,5075.0
26.8266,5014.0
26.86,4986.0
26.8934,5102.0
26.9268,5091.0
26.9602,5025.0
26.9937,4909.0
27.0271,4998.0
27.0605,4931.0
27.0939,5068.0
27.1274,5108.0
27.1608,5095.0
27.1942,5071.0
27.2276,5034.0
27.261,5079.0
27.2945,5009.0
27.3279,4964.0
27.3613,5067.0
27.3947,4910.0
27.4282,4980.0
27.4616,4896.0
27.495,4864.0
27.5284,4954.0
27.5618,4947.0
27.5953,5049.0
27.6287,4986.0
27.6621,4800.0
27.6955,4813.0
27.729,4949.0
27.7624,4918.0
27.7958,4947.0
27.8292,4910.0
27.8627,4990.0
27.8961,5001.0
27.9295,4776.0
27.9629,4999.0
27.9963,4936.0
28.0298,4936.0
28.0632,4879.0
28.0966,5045.0
28.13,4731.0
28.1635,4931.0
28.1969,4940.0
28.2303,4799.0
28.2637,4615.0
28.2971,4843.0
28.3306,4855.0
28.364,4789.0
28.3974,4790.0
28.4308,4789.0
28.4643,4866.0
28.4977,4764.0
28.5311,4887.0
28.5645,4771.0
28.5979,4880.0
28.6314,4830.0
28.6648,4828.0
28.6982,4949.0
28.7316,4865.0
28.7651,4766.0
28.7985,4859.0
28.8319,4747.0
28.8653,4692.0
28.8988,4894.0
28.9322,4846.0
28.9656,4788.0
28.999,4794.0
29.0324,4818.0
29.0659,4726.0
29.0993,4785.0
29.1327,4888.0
29.1661,4883.0
29.1996,4899.0
29.233,4690.0
29.2664,4821.0
29.2998,4760.0
29.3332,4675.0
29.3667,4803.0
29.4001,4667.0
29.4335,4742.0
29.4669,4750.0
29.5004,4677.0
29.5338,4654.0
29.5672,4795.0
29.6006,4680.0
29.634,4637.0
29.6675,4896.0
29.7009,4737.0
29.7343,4723.0
29.7677,4700.0
29.8012,4773.0
29.8346,4680.0
29.868,4688.0
29.9014,4818.0
29.9348,4732.0
29.9683,4577.0
30.0017,4630.0
30.0351,4724.0
30.0685,4748.0
30.102,4861.0
30.1354,4705.0
30.1688,4717.0
30.2022,4729.0
30.2357,4689.0
30.2691,4639.0
30.3025,4615.0
30.3359,4683.0
30.3693,4724.0
30.4028,4487.0
30.4362,4531.0
30.4696,4621.0
30.503,4581.0
30.5365,4606.0
30.5699,4635.0
30.6033,4593.0
30.6367,4695.0
30.6701,4738.0
30.7036,4682.0
30.737,4596.0
30.7704,4627.0
30.8038,4673.0
30.8373,4606.0
30.8707,4587.0
30.9041,4504.0
30.9375,4629.0
30.9709,4599.0
31.0044,4692.0
31.0378,4544.0
31.0712,4652.0
31.1046,4623.0
31.1381,4481.0
31.1715,4625.0
31.2049,4489.0
31.2383,4523.0
31.2718,4510.0
31.3052,4617.0
31.3386,4496.0
31.372,4702.0
31.4054,4609.0
31.4389,4584.0
31.4723,4491.0
31.5057,4737.0
31.5391,4553.0
31.5726,4546.0
31.606,4584.0
31.6394,4550.0
31.6728,4640.0
31.7062,4529.0
31.7397,4601.0
31.7731,4482.0
31.8065,4601.0
31.8399,4543.0
31.8734,4627.0
31.9068,4544.0
31.9402,4578.0
31.9736,4560.0
32.007,4720.0
32.0405,4620.0
32.0739,4682.0
32.1073,4531.0
32.1407,4536.0
32.1742,4466.0
32.2076,4510.0
32.241,4613.0
32.2744,4640.0
32.3078,4720.0
32.3413,4608.0
32.3747,4768.0
32.4081,4654.0
32.4415,4659.0
32.475,4754.0
32.5084,4813.0
32.5418,4636.0
32.5752,4679.0
32.6087,4590.0
32.6421,4617.0
32.6755,4669.0
32.7089,4803.0
32.7423,4725.0
32.7758,4615.0
32.8092,4726.0
32.8426,4729.0
32.876,4739.0
32.9095,4735.0
32.9429,4741.0
32.9763,4836.0
33.0097,4842.0
33.0431,4821.0
33.0766,5037.0
33.11,5006.0
33.1434,5176.0
33.1768,5118.0
33.2103,5163.0
33.2437,5267.0
33.2771,5169.0
33.3105,5160.0
33.3439,5096.0
33.3774,5032.0
33.4108,5029.0
33.4442,4858.0
33.4776,4984.0
33.5111,4915.0
33.5445,4870.0
33.5779,4866.0
33.6113,4863.0
33.6448,4817.0
33.6782,4817.0
33.7116,4815.0
33.745,4726.0
33.7784,4910.0
33.8119,4777.0
33.8453,4821.0
33.8787,4724.0
33.9121,4839.0
33.9456,4771.0
33.979,4760.0
34.0124,4709.0
34.0458,4669.0
34.0792,4868.0
34.1127,4710.0
34.1461,4785.0
34.1795,4877.0
34.2129,4797.0
34.2464,4715.0
34.2798,4719.0
34.3132,4645.0
34.3466,4642.0
34.38,4714.0
34.4135,4564.0
34.4469,4625.0
34.4803,4485.0
34.5137,4575.0
34.5472,4619.0
34.5806,4603.0
34.614,4499.0
34.6474,4505.0
34.6808,4442.0
34.7143,4463.0
34.7477,4411.0
34.7811,4451.0
34.8145,4567.0
34.848,4557.0
34.8814,4496.0
34.9148,4484.0
34.9482,4538.0
34.9817,4458.0
35.0151,4428.0
35.0485,4418.0
35.0819,4517.0
35.1153,4350.0
35.1488,4332.0
35.1822,4554.0
35.2156,4547.0
35.249,4481.0
35.2825,4530.0
35.3159,4374.0
35.3493,4530.0
35.3827,4510.0
35.4161,4413.0
35.4496,4402.0
35.483,4387.0
35.5164,4343.0
35.5498,4326.0
35.5833,4342.0
35.6167,4344.0
35.6501,4416.0
35.6835,4450.0
35.7169,4345.0
35.7504,4521.0
35.7838,4444.0
35.8172,4480.0
35.8506,4302.0
35.8841,4402.0
35.9175,4469.0
35.9509,4442.0
35.9843,4315.0
36.0178,4332.0
36.0512,4426.0
36.0846,4284.0
36.118,4326.0
36.1514,4269.0
36.1849,4383.0
36.2183,4353.0
36.2517,4368.0
36.2851,4411.0
36.3186,4355.0
36.352,4338.0
36.3854,4329.0
36.4188,4299.0
36.4522,4354.0
36.4857,4388.0
36.5191,4295.0
36.5525,4422.0
36.5859,4343.0
36.6194,4287.0
36.6528,4562.0
36.6862,4365.0
36.7196,4399.0
36.753,4295.0
36.7865,4316.0
36.8199,4244.0
36.8533,4245.0
36.8867,4460.0
36.9202,4190.0
36.9536,4274.0
36.987,4330.0
37.0204,4337.0
37.0538,4231.0
37.0873,4298.0
37.1207,4381.0
37.1541,4240.0
37.1875,4374.0
37.221,4226.0
37.2544,4322.0
37.2878,4233.0
37.3212,4456.0
37.3547,4326.0
37.3881,4235.0
37.4215,4276.0
37.4549,4221.0
37.4883,4289.0
37.5218,4416.0
37.5552,4327.0
37.5886,4228.0
37.622,4406.0
37.6555,4307.0
37.6889,4215.0
37.7223,4300.0
37.7557,4352.0
37.7891,4267.0
37.8226,4323.0
37.856,4485.0
37.8894,4430.0
37.9228,4286.0
37.9563,4246.0
37.9897,4460.0
38.0231,4220.0
38.0565,4298.0
38.0899,4324.0
38.1234,4349.0
38.1568,4273.0
38.1902,4276.0
38.2236,4387.0
38.2571,4302.0
38.2905,4320.0
38.3239,4325.0
38.3573,4369.0
38.3908,4342.0
38.4242,4312.0
38.4576,4256.0
38.491,4214.0
38.5244,4321.0
38.5579,4277.0
38.5913,4352.0
38.6247,4317.0
38.6581,4334.0
38.6916,4424.0
38.725,4337.0
38.7584,4251.0
38.7918,4294.0
38.8252,4402.0
38.8587,4453.0
38.8921,4249.0
38.9255,4173.0
38.9589,4415.0
38.9924,4187.0
39.0258,4298.0
39.0592,4462.0
39.0926,4274.0
39.126,4359.0
39.1595,4283.0
39.1929,4444.0
39.2263,4331.0
39.2597,4387.0
39.2932,4405.0
39.3266,4444.0
39.36,4435.0
39.3934,4475.0
39.4269,4425.0
39.4603,4543.0
39.4937,4396.0
39.5271,4499.0
39.5605,4596.0
39.594,4506.0
39.6274,4616.0
39.6608,4568.0
39.6942,4811.0
39.7277,4841.0
39.7611,4795.0
39.7945,4828.0
39.8279,4975.0
39.8613,4947.0
39.8948,5002.0
39.9282,4923.0
39.9616,5017.0
39.995,4891.0
40.0285,4787.0
40.0619,4774.0
40.0953,4783.0
40.1287,4742.0
40.1621,4754.0
40.1956,4717.0
40.229,4709.0
40.2624,4653.0
40.2958,4579.0
40.3293,4628.0
40.3627,4430.0
40.3961,4596.0
40.4295,4496.0
40.4629,4613.0
40.4964,4552.0
40.5298,4427.0
40.5632,4585.0
40.5966,4506.0
40.6301,4463.0
40.6635,4451.0
40.6969,4595.0
40.7303,4577.0
40.7638,4433.0
40.7972,4559.0
40.8306,4412.0
40.864,4444.0
40.8974,4465.0
40.9309,4528.0
40.9643,4551.0
40.9977,4491.0
41.0311,4454.0
41.0646,4590.0
41.098,4486.0
41.1314,4509.0
41.1648,4585.0
41.1982,4359.0
41.2317,4364.0
41.2651,4362.0
41.2985,4360.0
41.3319,4449.0
41.3654,4403.0
41.3988,4356.0
41.4322,4259.0
41.4656,4432.0
41.499,4417.0
41.5325,4291.0
41.5659,4328.0
41.5993,4345.0
41.6327,4323.0
41.6662,4334.0
41.6996,4314.0
41.733,4387.0
41.7664,4368.0
41.7999,4417.0
41.8333,4565.0
41.8667,4450.0
41.9001,4389.0
41.9335,4298.0
41.967,4393.0
42.0004,4357.0
42.0338,4359.0
42.0672,4441.0
42.1007,4275.0
42.1341,4363.0
42.1675,4273.0
42.2009,4298.0
42.2343,4365.0
42.2678,4352.0
42.3012,4274.0
42.3346,4312.0
42.368,4377.0
42.4015,4245.0
42.4349,4316.0
42.4683,4316.0
42.5017,4114.0
42.5351,4292.0
42.5686,4278.0
42.602,4323.0
42.6354,4234.0
42.6688,4248.0
42.7023,4246.0
42.7357,4213.0
42.7691,4212.0
42.8025,4293.0
42.8359,4357.0
42.8694,4410.0
42.9028,4328.0
42.9362,4317.0
42.9696,4372.0
43.0031,4293.0
43.0365,4217.0
43.0699,4229.0
43.1033,4245.0
43.1368,4307.0
43.1702,4409.0
43.2036,4214.0
43.237,4355.0
43.2704,4315.0
43.3039,4373.0
43.3373,4216.0
43.3707,4201.0
43.4041,4303.0
43.4376,4299.0
43.471,4220.0
43.5044,4328.0
43.5378,4282.0
43.5712,4224.0
43.6047,4294.0
43.6381,4314.0
43.6715,4345.0
43.7049,4219.0
43.7384,4353.0
43.7718,4198.0
43.8052,4364.0
43.8386,4219.0
43.872,4234.0
43.9055,4282.0
43.9389,4232.0
43.9723,4347.0
44.0057,4234.0
44.0392,4258.0
44.0726,4293.0
44.106,4285.0
44.1394,4248.0
44.1729,4299.0
44.2063,4193.0
44.2397,4252.0
44.2731,4271.0
44.3065,4267.0
44.34,4299.0
44.3734,4233.0
44.4068,4229.0
44.4402,4101.0
44.4737,4201.0
44.5071,4369.0
44.5405,4332.0
44.5739,4158.0
44.6073,4220.0
44.6408,4193.0
44.6742,4090.0
44.7076,4164.0
44.741,4240.0
44.7745,4119.0
44.8079,4166.0
44.8413,4171.0
44.8747,4252.0
44.9081,4213.0
44.9416,4122.0
44.975,4306.0
45.0084,4095.0
45.0418,4203.0
45.0753,4183.0
45.1087,4231.0
45.1421,4181.0
45.1755,4190.0
45.2089,4249.0
45.2424,4240.0
45.2758,4262.0
45.3092,4242.0
45.3426,4198.0
45.3761,4226.0
45.4095,4192.0
45.4429,4250.0
45.4763,4148.0
45.5098,4203.0
45.5432,4221.0
45.5766,4245.0
45.61,4269.0
45.6434,4238.0
45.6769,4215.0
45.7103,4138.0
45.7437,4042.0
45.7771,4377.0
45.8106,4328.0
45.844,4184.0
45.8774,4224.0
45.9108,4269.0
45.9442,4161.0
45.9777,4160.0
46.0111,4258.0
46.0445,4176.0
46.0779,4193.0
46.1114,4250.0
46.1448,4173.0
46.1782,4207.0
46.2116,4275.0
46.245,4326.0
46.2785,4143.0
46.3119,4239.0
46.3453,4210.0
46.3787,4238.0
46.4122,4097.0
46.4456,4237.0
46.479,4249.0
46.5124,4252.0
46.5459,4328.0
46.5793,4239.0
46.6127,4174.0
46.6461,4317.0
46.6795,4263.0
46.713,4294.0
46.7464,4215.0
46.7798,4213.0
46.8132,4348.0
46.8467,4246.0
46.8801,4339.0
46.9135,4152.0
46.9469,4227.0
46.9803,4197.0
47.0138,4339.0
47.0472,4224.0
47.0806,4204.0
47.114,4307.0
47.1475,4281.0
47.1809,4188.0
47.2143,4152.0
47.2477,4156.0
47.2811,4177.0
47.3146,4276.0
47.348,4190.0
47.3814,4243.0
47.4148,4212.0
47.4483,4150.0
47.4817,4307.0
47.5151,4176.0
47.5485,4273.0
47.5819,4309.0
47.6154,4412.0
47.6488,4253.0
47.6822,4222.0
47.7156,4265.0
47.7491,4263.0
47.7825,4360.0
47.8159,4561.0
47.8493,4353.0
47.8828,4255.0
47.9162,4387.0
47.9496,4327.0
47.983,4287.0
48.0164,4424.0
48.0499,4499.0
48.0833,4499.0
48.1167,4542.0
48.1501,4594.0
48.1836,4526.0
48.217,4587.0
48.2504,4708.0
48.2838,4645.0
48.3172,4727.0
48.3507,4911.0
48.3841,4892.0
48.4175,5114.0
48.4509,5247.0
48.4844,5287.0
48.5178,5324.0
48.5512,5310.0
48.5846,5427.0
48.618,5265.0
48.6515,5218.0
48.6849,5040.0
48.7183,5018.0
48.7517,5001.0
48.7852,5048.0
48.8186,4814.0
48.852,4805.0
48.8854,4844.0
48.9189,4662.0
48.9523,4735.0
48.9857,4697.0
49.0191,4738.0
49.0525,4619.0
49.086,4617.0
49.1194,4570.0
49.1528,4621.0
49.1862,4673.0
49.2197,4480.0
49.2531,4394.0
49.2865,4456.0
49.3199,4535.0
49.3533,4483.0
49.3868,4418.0
49.4202,4364.0
49.4536,4420.0
49.487,4423.0
49.5205,4407.0
49.5539,4585.0
49.5873,4341.0
49.6207,4425.0
49.6541,4311.0
49.6876,4343.0
49.721,4373.0
49.7544,4383.0
49.7878,4376.0
49.8213,4291.0
49.8547,4366.0
49.8881,4472.0
49.9215,4345.0
49.9549,4386.0
49.9884,4224.0
50.0218,4430.0
50.0552,4359.0
50.0886,4345.0
50.1221,4448.0
50.1555,4375.0
50.1889,4193.0
50.2223,4357.0
50.2558,4323.0
50.2892,4378.0
50.3226,4206.0
50.356,4400.0
50.3894,4265.0
50.4229,4295.0
50.4563,4313.0
50.4897,4369.0
50.5231,4253.0
50.5566,4258.0
50.59,4256.0
50.6234,4317.0
50.6568,4129.0
50.6902,4260.0
50.7237,4294.0
50.7571,4332.0
50.7905,4248.0
50.8239,4190.0
50.8574,4256.0
50.8908,4189.0
50.9242,4261.0
50.9576,4183.0
50.991,4218.0
51.0245,4261.0
51.0579,4317.0
51.0913,4211.0
51.1247,4293.0
51.1582,4200.0
51.1916,4240.0
51.225,4259.0
51.2584,4143.0
51.2919,4343.0
51.3253,4138.0
51.3587,4201.0
51.3921,4200.0
51.4255,4213.0
51.459,4261.0
51.4924,3998.0
51.5258,4195.0
51.5592,4278.0
51.5927,4139.0
51.6261,4164.0
51.6595,4385.0
51.6929,4236.0
51.7263,4294.0
51.7598,4160.0
51.7932,4168.0
51.8266,4279.0
51.86,4170.0
51.8935,4203.0
51.9269,4299.0
51.9603,4070.0
51.9937,4181.0
52.0271,4198.0
52.0606,4296.0
52.094,4204.0
52.1274,4061.0
52.1608,4296.0
52.1943,4252.0
52.2277,4153.0
52.2611,4232.0
52.2945,4314.0
52.3279,4366.0
52.3614,4313.0
52.3948,4212.0
52.4282,4387.0
52.4616,4323.0
52.4951,4265.0
52.5285,4222.0
52.5619,4290.0
52.5953,4262.0
52.6288,4356.0
52.6622,4364.0
52.6956,4327.0
52.729,4438.0
52.7624,4399.0
52.7959,4359.0
52.8293,4327.0
52.8627,4316.0
52.8961,4342.0
52.9296,4249.0
52.963,4495.0
52.9964,4422.0
53.0298,4421.0
53.0632,4387.0
53.0967,4476.0
53.1301,4311.0
53.1635,4433.0
53.1969,4278.0
53.2304,4379.0
53.2638,4391.0
53.2972,4455.0
53.3306,4286.0
53.364,4493.0
53.3975,4574.0
53.4309,4547.0
53.4643,4446.0
53.4977,4376.0
53.5312,4371.0
53.5646,4556.0
53.598,4616.0
53.6314,4565.0
53.6649,4512.0
53.6983,4598.0
53.7317,4714.0
53.7651,4825.0
53.7985,4882.0
53.832,4909.0
53.8654,4949.0
53.8988,4952.0
53.9322,5095.0
53.9657,5216.0
53.9991,5346.0
54.0325,5537.0
54.0659,5294.0
54.0993,5270.0
54.1328,5279.0
54.1662,5194.0
54.1996,5306.0
54.233,5205.0
54.2665,5116.0
54.2999,4997.0
54.3333,4964.0
54.3667,4865.0
54.4001,4820.0
54.4336,4797.0
54.467,4866.0
54.5004,4820.0
54.5338,4849.0
54.5673,4713.0
54.6007,4747.0
54.6341,4722.0
54.6675,4614.0
54.701,4772.0
54.7344,4613.0
54.7678,4701.0
54.8012,4845.0
54.8346,4839.0
54.8681,4663.0
54.9015,4877.0
54.9349,4815.0
54.9683,4755.0
55.0018,4787.0
55.0352,4747.0
55.0686,4774.0
55.102,4774.0
55.1354,4726.0
55.1689,4780.0
55.2023,4750.0
55.2357,4766.0
55.2691,4773.0
55.3026,4751.0
55.336,4928.0
55.3694,4811.0
55.4028,4672.0
55.4362,4891.0
55.4697,4767.0
55.5031,4671.0
55.5365,4767.0
55.5699,4774.0
55.6034,4826.0
55.6368,4655.0
55.6702,4554.0
55.7036,4672.0
55.737,4527.0
55.7705,4459.0
55.8039,4518.0
55.8373,4538.0
55.8707,4483.0
55.9042,4550.0
55.9376,4556.0
55.971,4497.0
56.0044,4521.0
56.0379,4418.0
56.0713,4453.0
56.1047,4410.0
56.1381,4422.0
56.1715,4430.0
56.205,4431.0
56.2384,4403.0
56.2718,4397.0
56.3052,4493.0
56.3387,4359.0
56.3721,4399.0
56.4055,4327.0
56.4389,4243.0
56.4723,4411.0
56.5058,4340.0
56.5392,4334.0
56.5726,4345.0
56.606,4254.0
56.6395,4543.0
56.6729,4182.0
56.7063,4436.0
56.7397,4408.0
56.7731,4527.0
56.8066,4307.0
56.84,4390.0
56.8734,4309.0
56.9068,4406.0
56.9403,4327.0
56.9737,4374.0
57.0071,4396.0
57.0405,4306.0
57.074,4395.0
57.1074,4361.0
57.1408,4416.0
57.1742,4274.0
57.2076,4315.0
57.2411,4146.0
57.2745,4290.0
57.3079,4413.0
57.3413,4347.0
57.3748,4386.0
57.4082,4258.0
57.4416,4186.0
57.475,4312.0
57.5084,4380.0
57.5419,4329.0
57.5753,4187.0
57.6087,4350.0
57.6421,4265.0
57.6756,4289.0
57.709,4167.0
57.7424,4307.0
57.7758,4400.0
57.8092,4374.0
57.8427,4448.0
57.8761,4403.0
57.9095,4293.0
57.9429,4303.0
57.9764,4243.0
58.0098,4158.0
58.0432,4354.0
58.0766,4268.0
58.11,4306.0
58.1435,4202.0
58.1769,4265.0
58.2103,4278.0
58.2437,4258.0
58.2772,4296.0
58.3106,4275.0
58.344,4287.0
58.3774,4324.0
58.4109,4278.0
58.4443,4330.0
58.4777,4238.0
58.5111,4256.0
58.5445,4352.0
58.578,4481.0
58.6114,4402.0
58.6448,4393.0
58.6782,4323.0
58.7117,4499.0
58.7451,4339.0
58.7785,4322.0
58.8119,4434.0
58.8453,4281.0
58.8788,4279.0
58.9122,4331.0
58.9456,4330.0
58.979,4496.0
59.0125,4295.0
59.0459,4365.0
59.0793,4353.0
59.1127,4316.0
59.1461,4385.0
59.1796,4357.0
59.213,4301.0
59.2464,4290.0
59.2798,4164.0
59.3133,4377.0
59.3467,4286.0
59.3801,4308.0
59.4135,4211.0
59.447,4327.0
59.4804,4339.0
59.5138,4361.0
59.5472,4340.0
59.5806,4299.0
59.6141,4218.0
59.6475,4249.0
59.6809,4388.0
59.7143,4227.0
59.7478,4295.0
59.7812,4336.0
59.8146,4372.0
59.848,4315.0
59.8814,4283.0
59.9149,4176.0
59.9483,4341.0
59.9817,4341.0
60.0151,4320.0
60.0486,4254.0
60.082,4243.0
60.1154,4212.0
60.1488,4261.0
60.1822,4291.0
60.2157,4350.0
60.2491,4284.0
60.2825,4313.0
60.3159,4336.0
60.3494,4291.0
60.3828,4318.0
60.4162,4407.0
60.4496,4297.0
60.483,4315.0
60.5165,4468.0
60.5499,4567.0
60.5833,4490.0
60.6167,4421.0
60.6502,4430.0
60.6836,4604.0
60.717,4451.0
60.7504,4506.0
60.7839,4456.0
60.8173,4428.0
60.8507,4410.0
60.8841,4593.0
60.9175,4511.0
60.951,4452.0
60.9844,4698.0
61.0178,4448.0
61.0512,4408.0
61.0847,4413.0
61.1181,4498.0
61.1515,4437.0
61.1849,4535.0
61.2183,4516.0
61.2518,4424.0
61.2852,4515.0
61.3186,4423.0
61.352,4465.0
61.3855,4457.0
61.4189,4529.0
61.4523,4513.0
61.4857,4426.0
61.5191,4583.0
61.5526,4545.0
61.586,4551.0
61.6194,4421.0
61.6528,4487.0
61.6863,4487.0
61.7197,4476.0
61.7531,4468.0
61.7865,4397.0
61.82,4423.0
61.8534,4468.0
61.8868,4561.0
61.9202,4371.0
61.9536,4226.0
61.9871,4460.0
62.0205,4394.0
62.0539,4454.0
62.0873,4403.0
62.1208,4363.0
62.1542,4396.0
62.1876,4447.0
62.221,4383.0
62.2544,4438.0
62.2879,4346.0
62.3213,4462.0
62.3547,4339.0
62.3881,4283.0
62.4216,4387.0
62.455,4247.0
62.4884,4375.0
62.5218,4399.0
62.5552,4379.0
62.5887,4369.0
62.6221,4447.0
62.6555,4301.0
62.6889,4450.0
62.7224,4372.0
62.7558,4264.0
62.7892,4373.0
62.8226,4388.0
62.856,4383.0
62.8895,4422.0
62.9229,4504.0
62.9563,4234.0
62.9897,4458.0
63.0232,4364.0
63.0566,4352.0
63.09,4410.0
63.1234,4394.0
63.1569,4281.0
63.1903,4427.0
63.2237,4306.0
63.2571,4386.0
63.2905,4350.0
63.324,4340.0
63.3574,4434.0
63.3908,4325.0
63.4242,4345.0
63.4577,4187.0
63.4911,4192.0
63.5245,4299.0
63.5579,4263.0
63.5913,4303.0
63.6248,4489.0
63.6582,4442.0
63.6916,4336.0
63.725,4252.0
63.7585,4278.0
63.7919,4349.0
63.8253,4217.0
63.8587,4232.0
63.8921,4266.0
63.9256,4290.0
63.959,4392.0
63.9924,4410.0
64.0258,4296.0
64.0593,4295.0
64.0927,4180.0
64.1261,4250.0
64.1595,4251.0
64.193,4433.0
64.2264,4298.0
64.2598,4062.0
64.2932,4362.0
64.3266,4302.0
64.3601,4150.0
64.3935,4114.0
64.4269,4302.0
64.4603,4155.0
64.4938,4289.0
64.5272,4231.0
64.5606,4348.0
64.594,4332.0
64.6274,4253.0
64.6609,4258.0
64.6943,4291.0
64.7277,4265.0
64.7611,4317.0
64.7946,4322.0
64.828,4287.0
64.8614,4231.0
64.8948,4280.0
64.9282,4144.0
64.9617,4262.0
64.9951,4260.0
65.0285,4308.0
65.0619,4326.0
65.0954,4301.0
65.1288,4393.0
65.1622,4208.0
65.1956,4294.0
65.229,4250.0
65.2625,4323.0
65.2959,4208.0
65.3293,4197.0
65.3627,4426.0
65.3962,4277.0
65.4296,4132.0
65.463,4281.0
65.4964,4363.0
65.5299,4339.0
65.5633,4183.0
65.5967,4336.0
65.6301,4337.0
65.6635,4286.0
65.697,4407.0
65.7304,4235.0
65.7638,4256.0
65.7972,4149.0
65.8307,4321.0
65.8641,4329.0
65.8975,4312.0
65.9309,4214.0
65.9643,4149.0
65.9978,4243.0
66.0312,4105.0
66.0646,4191.0
66.098,4338.0
66.1315,4213.0
66.1649,4066.0
66.1983,4336.0
66.2317,4331.0
66.2651,4189.0
66.2986,4237.0
66.332,4268.0
66.3654,4364.0
66.3988,4334.0
66.4323,4336.0
66.4657,4273.0
66.4991,4185.0
66.5325,4303.0
66.566,4236.0
66.5994,4183.0
66.6328,4327.0
66.6662,4280.0
66.6996,4135.0
66.7331,4320.0
66.7665,4246.0
66.7999,4389.0
66.8333,4234.0
66.8668,4192.0
66.9002,4078.0
66.9336,4280.0
66.967,4311.0
67.0004,4251.0
67.0339,4318.0
67.0673,4254.0
67.1007,4274.0
67.1341,4124.0
67.1676,4333.0
67.201,4195.0
67.2344,4210.0
67.2678,4281.0
67.3012,4250.0
67.3347,4192.0
67.3681,4256.0
67.4015,4253.0
67.4349,4374.0
67.4684,4159.0
67.5018,4190.0
67.5352,4142.0
67.5686,4226.0
67.602,4273.0
67.6355,4381.0
67.6689,4208.0
67.7023,4196.0
67.7357,4323.0
67.7692,4160.0
67.8026,4164.0
67.836,4396.0
67.8694,4269.0
67.9029,4221.0
67.9363,4197.0
67.9697,4281.0
68.0031,4138.0
68.0365,4214.0
68.07,4232.0
68.1034,4344.0
68.1368,4238.0
68.1702,4297.0
68.2037,4324.0
68.2371,4264.0
68.2705,4404.0
68.3039,4099.0
68.3373,4219.0
68.3708,4213.0
68.4042,4135.0
68.4376,4354.0
68.471,4379.0
68.5045,4175.0
68.5379,4198.0
68.5713,4324.0
68.6047,4267.0
68.6381,4325.0
68.6716,4285.0
68.705,4243.0
68.7384,4260.0
68.7718,4174.0
68.8053,4347.0
68.8387,4286.0
68.8721,4298.0
68.9055,4238.0
68.939,4376.0
68.9724,4255.0
69.0058,4242.0
69.0392,4349.0
69.0726,4252.0
69.1061,4281.0
69.1395,4291.0
69.1729,4328.0
69.2063,4121.0
69.2398,4380.0
69.2732,4364.0
69.3066,4263.0
69.34,4274.0
69.3734,4392.0
69.4069,4338.0
69.4403,4294.0
69.4737,4300.0
69.5071,4322.0
69.5406,4188.0
69.574,4332.0
69.6074,4409.0
69.6408,4389.0
69.6742,4179.0
69.7077,4337.0
69.7411,4358.0
69.7745,4438.0
69.8079,4418.0
69.8414,4386.0
69.8748,4283.0
69.9082,4455.0
69.9416,4377.0
69.975,4451.0
69.9918,4389.0