File: herald_visualization/XRD_Plotting/Figures/CrF3/250110-CrF3-as_received-20-70deg-40min.csv
2Theta,Intensity
20.0084,4383.0
20.0418,4345.0
20.0752,4478.0
20.1086,4314.0
20.142,4462.0
20.1755,4377.0
20.2089,4436.0
20.2423,4324.0
20.2757,4315.0
20.3092,4324.0
20.3426,4300.0
20.376,4309.0
20.4094,4236.0
20.4428,4221.0
20.4763,4220.0
20.5097,4198.0
20.5431,4124.0
20.5765,4245.0
20.61,4167.0
20.6434,4222.0
20.6768,4173.0
20.7102,4198.0
20.7437,4066.0
20.7771,3992.0
20.8105,4038.0
20.8439,3986.0
20.8773,4187.0
20.9108,4051.0
20.9442,4015.0
20.9776,4010.0
21.011,3961.0
21.0445,3964.0
21.0779,4042.0
21.1113,3899.0
21.1447,3839.0
21.1781,3932.0
21.2116,3872.0
21.245,3925.0
21.2784,3771.0
21.3118,3831.0
21.3453,3795.0
21.3787,3767.0
21.4121,3807.0
21.4455,3951.0
21.4789,3727.0
21.5124,3931.0
21.5458,3695.0
21.5792,3742.0
21.6126,3622.0
21.6461,3729.0
21.6795,3682.0
21.7129,3612.0
21.7463,3586.0
21.7798,3598.0
21.8132,3631.0
21.8466,3618.0
21.88,3677.0
21.9134,3532.0
21.9469,3629.0
21.9803,3544.0
22.0137,3587.0
22.0471,3464.0
22.0806,3512.0
22.114,3521.0
22.1474,3579.0
22.1808,3404.0
22.2142,3436.0
22.2477,3432.0
22.2811,3483.0
22.3145,3417.0
22.3479,3427.0
22.3814,3349.0
22.4148,3472.0
22.4482,3425.0
22.4816,3326.0
22.515,3210.0
22.5485,3399.0
22.5819,3453.0
22.6153,3403.0
22.6487,3237.0
22.6822,3247.0
22.7156,3244.0
22.749,3308.0
22.7824,3299.0
22.8158,3255.0
22.8493,3175.0
22.8827,3248.0
22.9161,3201.0
22.9495,3178.0
22.983,3163.0
23.0164,3081.0
23.0498,3093.0
23.0832,3117.0
23.1167,3195.0
23.1501,3098.0
23.1835,3138.0
23.2169,3195.0
23.2503,3042.0
23.2838,3065.0
23.3172,3100.0
23.3506,2997.0
23.384,3021.0
23.4175,2978.0
23.4509,3133.0
23.4843,3146.0
23.5177,3083.0
23.5511,3081.0
23.5846,3145.0
23.618,3181.0
23.6514,3175.0
23.6848,3076.0
23.7183,3199.0
23.7517,3156.0
23.7851,3239.0
23.8185,3191.0
23.8519,3252.0
23.8854,3263.0
23.9188,3333.0
23.9522,3303.0
23.9856,3362.0
24.0191,3241.0
24.0525,3342.0
24.0859,3080.0
24.1193,3201.0
24.1528,3172.0
24.1862,3208.0
24.2196,3217.0
24.253,3211.0
24.2864,3240.0
24.3199,3256.0
24.3533,3184.0
24.3867,3392.0
24.4201,3427.0
24.4536,3561.0
24.487,3530.0
24.5204,3539.0
24.5538,3486.0
24.5872,3444.0
24.6207,3450.0
24.6541,3319.0
24.6875,3239.0
24.7209,3122.0
24.7544,3089.0
24.7878,2925.0
24.8212,2897.0
24.8546,2849.0
24.888,2789.0
24.9215,2821.0
24.9549,2776.0
24.9883,2781.0
25.0217,2683.0
25.0552,2754.0
25.0886,2723.0
25.122,2765.0
25.1554,2676.0
25.1888,2721.0
25.2223,2671.0
25.2557,2704.0
25.2891,2675.0
25.3225,2694.0
25.356,2713.0
25.3894,2700.0
25.4228,2678.0
25.4562,2609.0
25.4897,2554.0
25.5231,2663.0
25.5565,2572.0
25.5899,2705.0
25.6233,2615.0
25.6568,2581.0
25.6902,2645.0
25.7236,2664.0
25.757,2637.0
25.7905,2552.0
25.8239,2633.0
25.8573,2583.0
25.8907,2480.0
25.9241,2579.0
25.9576,2578.0
25.991,2570.0
26.0244,2486.0
26.0578,2546.0
26.0913,2599.0
26.1247,2582.0
26.1581,2561.0
26.1915,2547.0
26.2249,2471.0
26.2584,2644.0
26.2918,2556.0
26.3252,2523.0
26.3586,2615.0
26.3921,2525.0
26.4255,2436.0
26.4589,2517.0
26.4923,2555.0
26.5258,2522.0
26.5592,2479.0
26.5926,2449.0
26.626,2375.0
26.6594,2424.0
26.6929,2541.0
26.7263,2525.0
26.7597,2490.0
26.7931,2457.0
26.8266,2515.0
26.86,2660.0
26.8934,2638.0
26.9268,2658.0
26.9602,2785.0
26.9937,2835.0
27.0271,2954.0
27.0605,2950.0
27.0939,2904.0
27.1274,2830.0
27.1608,2646.0
27.1942,2562.0
27.2276,2461.0
27.261,2626.0
27.2945,2562.0
27.3279,2540.0
27.3613,2498.0
27.3947,2480.0
27.4282,2574.0
27.4616,2633.0
27.495,2720.0
27.5284,2750.0
27.5618,2635.0
27.5953,2807.0
27.6287,2847.0
27.6621,3077.0
27.6955,3403.0
27.729,3136.0
27.7624,3299.0
27.7958,3108.0
27.8292,3132.0
27.8627,3104.0
27.8961,3096.0
27.9295,3075.0
27.9629,3085.0
27.9963,2947.0
28.0298,3044.0
28.0632,2933.0
28.0966,2948.0
28.13,2839.0
28.1635,2824.0
28.1969,2682.0
28.2303,2715.0
28.2637,2667.0
28.2971,2658.0
28.3306,2608.0
28.364,2557.0
28.3974,2516.0
28.4308,2446.0
28.4643,2418.0
28.4977,2344.0
28.5311,2456.0
28.5645,2290.0
28.5979,2326.0
28.6314,2314.0
28.6648,2318.0
28.6982,2247.0
28.7316,2299.0
28.7651,2287.0
28.7985,2297.0
28.8319,2164.0
28.8653,2180.0
28.8988,2243.0
28.9322,2219.0
28.9656,2198.0
28.999,2174.0
29.0324,2128.0
29.0659,2280.0
29.0993,2093.0
29.1327,2046.0
29.1661,2125.0
29.1996,2187.0
29.233,2148.0
29.2664,2171.0
29.2998,2097.0
29.3332,2192.0
29.3667,2130.0
29.4001,2067.0
29.4335,2109.0
29.4669,2067.0
29.5004,2063.0
29.5338,2141.0
29.5672,2051.0
29.6006,2036.0
29.634,2045.0
29.6675,2059.0
29.7009,2020.0
29.7343,2074.0
29.7677,2052.0
29.8012,2021.0
29.8346,2033.0
29.868,2067.0
29.9014,1965.0
29.9348,2005.0
29.9683,2035.0
30.0017,2020.0
30.0351,2033.0
30.0685,2053.0
30.102,1973.0
30.1354,2044.0
30.1688,1976.0
30.2022,1921.0
30.2357,1884.0
30.2691,1907.0
30.3025,2037.0
30.3359,1914.0
30.3693,1959.0
30.4028,1927.0
30.4362,1944.0
30.4696,2002.0
30.503,1949.0
30.5365,1879.0
30.5699,2017.0
30.6033,1890.0
30.6367,1938.0
30.6701,1931.0
30.7036,1942.0
30.737,1859.0
30.7704,1851.0
30.8038,1895.0
30.8373,1851.0
30.8707,1893.0
30.9041,1859.0
30.9375,1791.0
30.9709,1856.0
31.0044,1874.0
31.0378,1954.0
31.0712,1988.0
31.1046,1876.0
31.1381,1899.0
31.1715,1870.0
31.2049,1845.0
31.2383,1868.0
31.2718,1923.0
31.3052,1825.0
31.3386,1951.0
31.372,1857.0
31.4054,1763.0
31.4389,1844.0
31.4723,1875.0
31.5057,1876.0
31.5391,1828.0
31.5726,1832.0
31.606,1812.0
31.6394,1856.0
31.6728,1798.0
31.7062,1847.0
31.7397,1827.0
31.7731,1763.0
31.8065,1852.0
31.8399,1840.0
31.8734,1687.0
31.9068,1732.0
31.9402,1772.0
31.9736,1780.0
32.007,1804.0
32.0405,1752.0
32.0739,1809.0
32.1073,1803.0
32.1407,1683.0
32.1742,1798.0
32.2076,1738.0
32.241,1844.0
32.2744,1722.0
32.3078,1738.0
32.3413,1711.0
32.3747,1803.0
32.4081,1804.0
32.4415,1848.0
32.475,1682.0
32.5084,1683.0
32.5418,1716.0
32.5752,1695.0
32.6087,1736.0
32.6421,1740.0
32.6755,1663.0
32.7089,1795.0
32.7423,1700.0
32.7758,1734.0
32.8092,1681.0
32.8426,1763.0
32.876,1682.0
32.9095,1718.0
32.9429,1724.0
32.9763,1741.0
33.0097,1609.0
33.0431,1722.0
33.0766,1723.0
33.11,1669.0
33.1434,1681.0
33.1768,1583.0
33.2103,1697.0
33.2437,1741.0
33.2771,1688.0
33.3105,1645.0
33.3439,1764.0
33.3774,1673.0
33.4108,1640.0
33.4442,1669.0
33.4776,1683.0
33.5111,1717.0
33.5445,1721.0
33.5779,1673.0
33.6113,1720.0
33.6448,1662.0
33.6782,1739.0
33.7116,1626.0
33.745,1705.0
33.7784,1662.0
33.8119,1650.0
33.8453,1734.0
33.8787,1672.0
33.9121,1783.0
33.9456,1721.0
33.979,1776.0
34.0124,1765.0
34.0458,1716.0
34.0792,1765.0
34.1127,1776.0
34.1461,1700.0
34.1795,1724.0
34.2129,1667.0
34.2464,1711.0
34.2798,1669.0
34.3132,1686.0
34.3466,1657.0
34.38,1663.0
34.4135,1694.0
34.4469,1684.0
34.4803,1615.0
34.5137,1702.0
34.5472,1652.0
34.5806,1617.0
34.614,1591.0
34.6474,1650.0
34.6808,1704.0
34.7143,1804.0
34.7477,1993.0
34.7811,2022.0
34.8145,1904.0
34.848,2016.0
34.8814,1861.0
34.9148,1802.0
34.9482,1629.0
34.9817,1729.0
35.0151,1650.0
35.0485,1590.0
35.0819,1607.0
35.1153,1666.0
35.1488,1546.0
35.1822,1630.0
35.2156,1593.0
35.249,1628.0
35.2825,1590.0
35.3159,1598.0
35.3493,1530.0
35.3827,1601.0
35.4161,1564.0
35.4496,1558.0
35.483,1598.0
35.5164,1507.0
35.5498,1563.0
35.5833,1560.0
35.6167,1630.0
35.6501,1609.0
35.6835,1571.0
35.7169,1620.0
35.7504,1580.0
35.7838,1640.0
35.8172,1516.0
35.8506,1525.0
35.8841,1549.0
35.9175,1620.0
35.9509,1478.0
35.9843,1510.0
36.0178,1566.0
36.0512,1443.0
36.0846,1543.0
36.118,1514.0
36.1514,1455.0
36.1849,1545.0
36.2183,1491.0
36.2517,1491.0
36.2851,1528.0
36.3186,1525.0
36.352,1514.0
36.3854,1547.0
36.4188,1502.0
36.4522,1488.0
36.4857,1481.0
36.5191,1540.0
36.5525,1477.0
36.5859,1585.0
36.6194,1561.0
36.6528,1505.0
36.6862,1498.0
36.7196,1520.0
36.753,1517.0
36.7865,1599.0
36.8199,1554.0
36.8533,1561.0
36.8867,1625.0
36.9202,1636.0
36.9536,1562.0
36.987,1614.0
37.0204,1617.0
37.0538,1594.0
37.0873,1678.0
37.1207,1578.0
37.1541,1617.0
37.1875,1581.0
37.221,1603.0
37.2544,1608.0
37.2878,1550.0
37.3212,1571.0
37.3547,1535.0
37.3881,1563.0
37.4215,1587.0
37.4549,1578.0
37.4883,1535.0
37.5218,1564.0
37.5552,1609.0
37.5886,1550.0
37.622,1533.0
37.6555,1511.0
37.6889,1504.0
37.7223,1478.0
37.7557,1560.0
37.7891,1495.0
37.8226,1481.0
37.856,1451.0
37.8894,1488.0
37.9228,1352.0
37.9563,1388.0
37.9897,1536.0
38.0231,1389.0
38.0565,1466.0
38.0899,1470.0
38.1234,1423.0
38.1568,1409.0
38.1902,1576.0
38.2236,1473.0
38.2571,1461.0
38.2905,1466.0
38.3239,1416.0
38.3573,1404.0
38.3908,1386.0
38.4242,1461.0
38.4576,1428.0
38.491,1475.0
38.5244,1453.0
38.5579,1480.0
38.5913,1550.0
38.6247,1474.0
38.6581,1517.0
38.6916,1514.0
38.725,1494.0
38.7584,1525.0
38.7918,1441.0
38.8252,1392.0
38.8587,1434.0
38.8921,1400.0
38.9255,1453.0
38.9589,1518.0
38.9924,1351.0
39.0258,1418.0
39.0592,1453.0
39.0926,1383.0
39.126,1479.0
39.1595,1462.0
39.1929,1488.0
39.2263,1343.0
39.2597,1346.0
39.2932,1402.0
39.3266,1442.0
39.36,1378.0
39.3934,1357.0
39.4269,1363.0
39.4603,1435.0
39.4937,1375.0
39.5271,1456.0
39.5605,1431.0
39.594,1386.0
39.6274,1423.0
39.6608,1462.0
39.6942,1417.0
39.7277,1457.0
39.7611,1449.0
39.7945,1439.0
39.8279,1342.0
39.8613,1470.0
39.8948,1486.0
39.9282,1443.0
39.9616,1572.0
39.995,1676.0
40.0285,1595.0
40.0619,1478.0
40.0953,1447.0
40.1287,1458.0
40.1621,1383.0
40.1956,1426.0
40.229,1386.0
40.2624,1391.0
40.2958,1406.0
40.3293,1381.0
40.3627,1419.0
40.3961,1358.0
40.4295,1351.0
40.4629,1381.0
40.4964,1367.0
40.5298,1433.0
40.5632,1405.0
40.5966,1368.0
40.6301,1427.0
40.6635,1466.0
40.6969,1397.0
40.7303,1327.0
40.7638,1387.0
40.7972,1430.0
40.8306,1392.0
40.864,1378.0
40.8974,1393.0
40.9309,1426.0
40.9643,1394.0
40.9977,1354.0
41.0311,1469.0
41.0646,1408.0
41.098,1420.0
41.1314,1441.0
41.1648,1448.0
41.1982,1402.0
41.2317,1403.0
41.2651,1456.0
41.2985,1304.0
41.3319,1422.0
41.3654,1459.0
41.3988,1471.0
41.4322,1501.0
41.4656,1500.0
41.499,1496.0
41.5325,1466.0
41.5659,1465.0
41.5993,1454.0
41.6327,1427.0
41.6662,1455.0
41.6996,1457.0
41.733,1452.0
41.7664,1396.0
41.7999,1418.0
41.8333,1412.0
41.8667,1448.0
41.9001,1369.0
41.9335,1466.0
41.967,1347.0
42.0004,1418.0
42.0338,1410.0
42.0672,1365.0
42.1007,1354.0
42.1341,1405.0
42.1675,1341.0
42.2009,1367.0
42.2343,1354.0
42.2678,1318.0
42.3012,1311.0
42.3346,1326.0
42.368,1426.0
42.4015,1370.0
42.4349,1377.0
42.4683,1378.0
42.5017,1320.0
42.5351,1308.0
42.5686,1396.0
42.602,1370.0
42.6354,1387.0
42.6688,1289.0
42.7023,1342.0
42.7357,1375.0
42.7691,1394.0
42.8025,1342.0
42.8359,1336.0
42.8694,1310.0
42.9028,1306.0
42.9362,1341.0
42.9696,1279.0
43.0031,1342.0
43.0365,1309.0
43.0699,1361.0
43.1033,1345.0
43.1368,1351.0
43.1702,1351.0
43.2036,1257.0
43.237,1324.0
43.2704,1338.0
43.3039,1408.0
43.3373,1373.0
43.3707,1388.0
43.4041,1331.0
43.4376,1399.0
43.471,1427.0
43.5044,1373.0
43.5378,1400.0
43.5712,1394.0
43.6047,1341.0
43.6381,1381.0
43.6715,1299.0
43.7049,1372.0
43.7384,1361.0
43.7718,1258.0
43.8052,1360.0
43.8386,1349.0
43.872,1324.0
43.9055,1370.0
43.9389,1314.0
43.9723,1355.0
44.0057,1409.0
44.0392,1336.0
44.0726,1318.0
44.106,1359.0
44.1394,1367.0
44.1729,1447.0
44.2063,1324.0
44.2397,1315.0
44.2731,1274.0
44.3065,1293.0
44.34,1361.0
44.3734,1314.0
44.4068,1411.0
44.4402,1370.0
44.4737,1359.0
44.5071,1359.0
44.5405,1407.0
44.5739,1437.0
44.6073,1377.0
44.6408,1440.0
44.6742,1333.0
44.7076,1261.0
44.741,1307.0
44.7745,1340.0
44.8079,1376.0
44.8413,1331.0
44.8747,1337.0
44.9081,1356.0
44.9416,1324.0
44.975,1338.0
45.0084,1357.0
45.0418,1310.0
45.0753,1315.0
45.1087,1293.0
45.1421,1331.0
45.1755,1304.0
45.2089,1254.0
45.2424,1323.0
45.2758,1275.0
45.3092,1355.0
45.3426,1245.0
45.3761,1312.0
45.4095,1289.0
45.4429,1265.0
45.4763,1305.0
45.5098,1244.0
45.5432,1355.0
45.5766,1267.0
45.61,1306.0
45.6434,1263.0
45.6769,1232.0
45.7103,1285.0
45.7437,1266.0
45.7771,1276.0
45.8106,1291.0
45.844,1273.0
45.8774,1291.0
45.9108,1316.0
45.9442,1242.0
45.9777,1242.0
46.0111,1276.0
46.0445,1298.0
46.0779,1229.0
46.1114,1297.0
46.1448,1302.0
46.1782,1261.0
46.2116,1213.0
46.245,1347.0
46.2785,1258.0
46.3119,1301.0
46.3453,1229.0
46.3787,1304.0
46.4122,1273.0
46.4456,1258.0
46.479,1273.0
46.5124,1279.0
46.5459,1258.0
46.5793,1283.0
46.6127,1228.0
46.6461,1258.0
46.6795,1251.0
46.713,1254.0
46.7464,1278.0
46.7798,1251.0
46.8132,1219.0
46.8467,1317.0
46.8801,1284.0
46.9135,1255.0
46.9469,1237.0
46.9803,1276.0
47.0138,1266.0
47.0472,1187.0
47.0806,1229.0
47.114,1261.0
47.1475,1277.0
47.1809,1308.0
47.2143,1249.0
47.2477,1246.0
47.2811,1200.0
47.3146,1294.0
47.348,1310.0
47.3814,1249.0
47.4148,1201.0
47.4483,1241.0
47.4817,1320.0
47.5151,1231.0
47.5485,1201.0
47.5819,1261.0
47.6154,1273.0
47.6488,1242.0
47.6822,1224.0
47.7156,1217.0
47.7491,1289.0
47.7825,1219.0
47.8159,1229.0
47.8493,1296.0
47.8828,1221.0
47.9162,1159.0
47.9496,1287.0
47.983,1230.0
48.0164,1232.0
48.0499,1258.0
48.0833,1238.0
48.1167,1279.0
48.1501,1213.0
48.1836,1242.0
48.217,1278.0
48.2504,1205.0
48.2838,1265.0
48.3172,1227.0
48.3507,1248.0
48.3841,1273.0
48.4175,1229.0
48.4509,1270.0
48.4844,1267.0
48.5178,1267.0
48.5512,1244.0
48.5846,1295.0
48.618,1282.0
48.6515,1247.0
48.6849,1290.0
48.7183,1324.0
48.7517,1332.0
48.7852,1362.0
48.8186,1310.0
48.852,1318.0
48.8854,1397.0
48.9189,1351.0
48.9523,1385.0
48.9857,1333.0
49.0191,1341.0
49.0525,1399.0
49.086,1356.0
49.1194,1358.0
49.1528,1349.0
49.1862,1412.0
49.2197,1375.0
49.2531,1358.0
49.2865,1420.0
49.3199,1436.0
49.3533,1385.0
49.3868,1426.0
49.4202,1389.0
49.4536,1405.0
49.487,1387.0
49.5205,1393.0
49.5539,1348.0
49.5873,1425.0
49.6207,1488.0
49.6541,1406.0
49.6876,1395.0
49.721,1372.0
49.7544,1378.0
49.7878,1357.0
49.8213,1385.0
49.8547,1333.0
49.8881,1334.0
49.9215,1285.0
49.9549,1420.0
49.9884,1345.0
50.0218,1349.0
50.0552,1327.0
50.0886,1355.0
50.1221,1292.0
50.1555,1368.0
50.1889,1304.0
50.2223,1387.0
50.2558,1389.0
50.2892,1364.0
50.3226,1338.0
50.356,1400.0
50.3894,1389.0
50.4229,1320.0
50.4563,1323.0
50.4897,1259.0
50.5231,1252.0
50.5566,1300.0
50.59,1322.0
50.6234,1362.0
50.6568,1239.0
50.6902,1201.0
50.7237,1267.0
50.7571,1306.0
50.7905,1235.0
50.8239,1191.0
50.8574,1273.0
50.8908,1274.0
50.9242,1198.0
50.9576,1251.0
50.991,1196.0
51.0245,1251.0
51.0579,1192.0
51.0913,1219.0
51.1247,1221.0
51.1582,1223.0
51.1916,1195.0
51.225,1195.0
51.2584,1282.0
51.2919,1229.0
51.3253,1233.0
51.3587,1215.0
51.3921,1241.0
51.4255,1192.0
51.459,1337.0
51.4924,1125.0
51.5258,1221.0
51.5592,1187.0
51.5927,1277.0
51.6261,1210.0
51.6595,1235.0
51.6929,1187.0
51.7263,1194.0
51.7598,1189.0
51.7932,1201.0
51.8266,1208.0
51.86,1263.0
51.8935,1213.0
51.9269,1186.0
51.9603,1182.0
51.9937,1164.0
52.0271,1214.0
52.0606,1234.0
52.094,1229.0
52.1274,1108.0
52.1608,1161.0
52.1943,1213.0
52.2277,1199.0
52.2611,1217.0
52.2945,1211.0
52.3279,1184.0
52.3614,1168.0
52.3948,1194.0
52.4282,1183.0
52.4616,1147.0
52.4951,1235.0
52.5285,1129.0
52.5619,1199.0
52.5953,1200.0
52.6288,1232.0
52.6622,1151.0
52.6956,1186.0
52.729,1201.0
52.7624,1217.0
52.7959,1168.0
52.8293,1211.0
52.8627,1276.0
52.8961,1347.0
52.9296,1556.0
52.963,1575.0
52.9964,1565.0
53.0298,1342.0
53.0632,1414.0
53.0967,1487.0
53.1301,1481.0
53.1635,1305.0
53.1969,1284.0
53.2304,1261.0
53.2638,1192.0
53.2972,1216.0
53.3306,1245.0
53.364,1182.0
53.3975,1211.0
53.4309,1278.0
53.4643,1176.0
53.4977,1135.0
53.5312,1180.0
53.5646,1189.0
53.598,1211.0
53.6314,1127.0
53.6649,1133.0
53.6983,1127.0
53.7317,1174.0
53.7651,1187.0
53.7985,1113.0
53.832,1172.0
53.8654,1211.0
53.8988,1170.0
53.9322,1094.0
53.9657,1150.0
53.9991,1183.0
54.0325,1140.0
54.0659,1184.0
54.0993,1206.0
54.1328,1176.0
54.1662,1123.0
54.1996,1139.0
54.233,1200.0
54.2665,1132.0
54.2999,1179.0
54.3333,1123.0
54.3667,1106.0
54.4001,1161.0
54.4336,1177.0
54.467,1096.0
54.5004,1197.0
54.5338,1190.0
54.5673,1192.0
54.6007,1226.0
54.6341,1142.0
54.6675,1137.0
54.701,1222.0
54.7344,1133.0
54.7678,1188.0
54.8012,1216.0
54.8346,1155.0
54.8681,1156.0
54.9015,1190.0
54.9349,1239.0
54.9683,1180.0
55.0018,1230.0
55.0352,1244.0
55.0686,1242.0
55.102,1261.0
55.1354,1304.0
55.1689,1310.0
55.2023,1185.0
55.2357,1263.0
55.2691,1321.0
55.3026,1297.0
55.336,1260.0
55.3694,1321.0
55.4028,1337.0
55.4362,1315.0
55.4697,1324.0
55.5031,1431.0
55.5365,1360.0
55.5699,1412.0
55.6034,1294.0
55.6368,1323.0
55.6702,1316.0
55.7036,1354.0
55.737,1421.0
55.7705,1372.0
55.8039,1374.0
55.8373,1377.0
55.8707,1369.0
55.9042,1416.0
55.9376,1321.0
55.971,1322.0
56.0044,1252.0
56.0379,1234.0
56.0713,1309.0
56.1047,1276.0
56.1381,1211.0
56.1715,1309.0
56.205,1243.0
56.2384,1207.0
56.2718,1177.0
56.3052,1254.0
56.3387,1180.0
56.3721,1174.0
56.4055,1144.0
56.4389,1249.0
56.4723,1175.0
56.5058,1230.0
56.5392,1186.0
56.5726,1232.0
56.606,1157.0
56.6395,1186.0
56.6729,1204.0
56.7063,1182.0
56.7397,1151.0
56.7731,1140.0
56.8066,1155.0
56.84,1147.0
56.8734,1191.0
56.9068,1206.0
56.9403,1148.0
56.9737,1184.0
57.0071,1188.0
57.0405,1192.0
57.074,1174.0
57.1074,1219.0
57.1408,1180.0
57.1742,1181.0
57.2076,1164.0
57.2411,1281.0
57.2745,1208.0
57.3079,1194.0
57.3413,1233.0
57.3748,1195.0
57.4082,1177.0
57.4416,1255.0
57.475,1147.0
57.5084,1176.0
57.5419,1290.0
57.5753,1204.0
57.6087,1221.0
57.6421,1260.0
57.6756,1300.0
57.709,1259.0
57.7424,1205.0
57.7758,1224.0
57.8092,1260.0
57.8427,1199.0
57.8761,1208.0
57.9095,1220.0
57.9429,1173.0
57.9764,1247.0
58.0098,1250.0
58.0432,1224.0
58.0766,1234.0
58.11,1197.0
58.1435,1213.0
58.1769,1206.0
58.2103,1165.0
58.2437,1126.0
58.2772,1128.0
58.3106,1183.0
58.344,1158.0
58.3774,1229.0
58.4109,1138.0
58.4443,1152.0
58.4777,1149.0
58.5111,1138.0
58.5445,1093.0
58.578,1208.0
58.6114,1094.0
58.6448,1107.0
58.6782,1067.0
58.7117,1132.0
58.7451,1166.0
58.7785,1135.0
58.8119,1147.0
58.8453,1107.0
58.8788,1093.0
58.9122,1059.0
58.9456,1144.0
58.979,1072.0
59.0125,1081.0
59.0459,1097.0
59.0793,1025.0
59.1127,1095.0
59.1461,1082.0
59.1796,1122.0
59.213,1080.0
59.2464,1051.0
59.2798,1090.0
59.3133,1079.0
59.3467,1039.0
59.3801,1062.0
59.4135,1054.0
59.447,1061.0
59.4804,1073.0
59.5138,1124.0
59.5472,1037.0
59.5806,1062.0
59.6141,1077.0
59.6475,1105.0
59.6809,1078.0
59.7143,1054.0
59.7478,1095.0
59.7812,1113.0
59.8146,1175.0
59.848,1199.0
59.8814,1078.0
59.9149,1051.0
59.9483,1118.0
59.9817,1079.0
60.0151,1101.0
60.0486,1079.0
60.082,1073.0
60.1154,1014.0
60.1488,961.0
60.1822,1047.0
60.2157,1076.0
60.2491,1066.0
60.2825,1013.0
60.3159,1076.0
60.3494,1081.0
60.3828,1069.0
60.4162,1010.0
60.4496,1102.0
60.483,1039.0
60.5165,1089.0
60.5499,1029.0
60.5833,994.0
60.6167,1037.0
60.6502,1061.0
60.6836,1082.0
60.717,1059.0
60.7504,1011.0
60.7839,1047.0
60.8173,1024.0
60.8507,1038.0
60.8841,1073.0
60.9175,1063.0
60.951,1028.0
60.9844,1096.0
61.0178,995.0
61.0512,1018.0
61.0847,1034.0
61.1181,1025.0
61.1515,1000.0
61.1849,979.0
61.2183,1060.0
61.2518,1017.0
61.2852,1010.0
61.3186,1017.0
61.352,1072.0
61.3855,1053.0
61.4189,1042.0
61.4523,1006.0
61.4857,1012.0
61.5191,1016.0
61.5526,1084.0
61.586,990.0
61.6194,1020.0
61.6528,987.0
61.6863,1075.0
61.7197,1043.0
61.7531,1004.0
61.7865,952.0
61.82,1062.0
61.8534,1013.0
61.8868,1030.0
61.9202,1053.0
61.9536,1046.0
61.9871,1022.0
62.0205,976.0
62.0539,1056.0
62.0873,1024.0
62.1208,1031.0
62.1542,1058.0
62.1876,1070.0
62.221,1025.0
62.2544,980.0
62.2879,1018.0
62.3213,1043.0
62.3547,1042.0
62.3881,1025.0
62.4216,1079.0
62.455,1064.0
62.4884,1058.0
62.5218,1069.0
62.5552,960.0
62.5887,1060.0
62.6221,1053.0
62.6555,1018.0
62.6889,1045.0
62.7224,1053.0
62.7558,1088.0
62.7892,1064.0
62.8226,1050.0
62.856,1033.0
62.8895,1114.0
62.9229,1101.0
62.9563,1060.0
62.9897,1077.0
63.0232,1081.0
63.0566,1064.0
63.09,1104.0
63.1234,1189.0
63.1569,1061.0
63.1903,1086.0
63.2237,1133.0
63.2571,1126.0
63.2905,1048.0
63.324,1086.0
63.3574,1024.0
63.3908,1103.0
63.4242,1134.0
63.4577,1066.0
63.4911,1051.0
63.5245,1016.0
63.5579,1087.0
63.5913,1029.0
63.6248,1088.0
63.6582,1060.0
63.6916,1074.0
63.725,1032.0
63.7585,1043.0
63.7919,1029.0
63.8253,1023.0
63.8587,1074.0
63.8921,1019.0
63.9256,1041.0
63.959,1092.0
63.9924,1022.0
64.0258,1095.0
64.0593,986.0
64.0927,1063.0
64.1261,1094.0
64.1595,1093.0
64.193,1017.0
64.2264,1024.0
64.2598,1056.0
64.2932,1078.0
64.3266,1034.0
64.3601,1049.0
64.3935,1014.0
64.4269,1066.0
64.4603,1041.0
64.4938,1063.0
64.5272,1003.0
64.5606,1080.0
64.594,1046.0
64.6274,1001.0
64.6609,1114.0
64.6943,1092.0
64.7277,1072.0
64.7611,1026.0
64.7946,1051.0
64.828,990.0
64.8614,987.0
64.8948,1089.0
64.9282,1049.0
64.9617,1020.0
64.9951,1046.0
65.0285,1041.0
65.0619,1044.0
65.0954,1063.0
65.1288,1015.0
65.1622,1011.0
65.1956,1034.0
65.229,1063.0
65.2625,981.0
65.2959,955.0
65.3293,1022.0