File: herald_visualization/XRD Plotting Scripts (Riley)/Figures/Li2FeS2/250213_Li2FeS2_100min_20-70deg.csv
2Theta,Intensity
20.0084,4714.0
20.0418,4804.0
20.0752,4750.0
20.1086,4833.0
20.142,4804.0
20.1755,4786.0
20.2089,4703.0
20.2423,4659.0
20.2757,4734.0
20.3092,4658.0
20.3426,4638.0
20.376,4671.0
20.4094,4739.0
20.4428,4647.0
20.4763,4592.0
20.5097,4622.0
20.5431,4592.0
20.5765,4613.0
20.61,4671.0
20.6434,4572.0
20.6768,4529.0
20.7102,4484.0
20.7437,4557.0
20.7771,4531.0
20.8105,4426.0
20.8439,4521.0
20.8773,4359.0
20.9108,4245.0
20.9442,4391.0
20.9776,4352.0
21.011,4308.0
21.0445,4254.0
21.0779,4281.0
21.1113,4303.0
21.1447,4342.0
21.1781,4260.0
21.2116,4229.0
21.245,4201.0
21.2784,4227.0
21.3118,4371.0
21.3453,4276.0
21.3787,4130.0
21.4121,4114.0
21.4455,4405.0
21.4789,4150.0
21.5124,4138.0
21.5458,4071.0
21.5792,4120.0
21.6126,4025.0
21.6461,4127.0
21.6795,4002.0
21.7129,4048.0
21.7463,4028.0
21.7798,3980.0
21.8132,3919.0
21.8466,3988.0
21.88,4013.0
21.9134,4096.0
21.9469,3967.0
21.9803,3820.0
22.0137,3893.0
22.0471,3979.0
22.0806,3966.0
22.114,3849.0
22.1474,3918.0
22.1808,3866.0
22.2142,3845.0
22.2477,3846.0
22.2811,3812.0
22.3145,3780.0
22.3479,3829.0
22.3814,3620.0
22.4148,3812.0
22.4482,3731.0
22.4816,3755.0
22.515,3588.0
22.5485,3778.0
22.5819,3632.0
22.6153,3733.0
22.6487,3600.0
22.6822,3578.0
22.7156,3789.0
22.749,3765.0
22.7824,3800.0
22.8158,3736.0
22.8493,3711.0
22.8827,3570.0
22.9161,3576.0
22.9495,3614.0
22.983,3572.0
23.0164,3479.0
23.0498,3500.0
23.0832,3491.0
23.1167,3478.0
23.1501,3570.0
23.1835,3489.0
23.2169,3433.0
23.2503,3318.0
23.2838,3362.0
23.3172,3453.0
23.3506,3391.0
23.384,3457.0
23.4175,3351.0
23.4509,3454.0
23.4843,3388.0
23.5177,3482.0
23.5511,3360.0
23.5846,3354.0
23.618,3347.0
23.6514,3371.0
23.6848,3217.0
23.7183,3313.0
23.7517,3381.0
23.7851,3381.0
23.8185,3364.0
23.8519,3293.0
23.8854,3365.0
23.9188,3370.0
23.9522,3354.0
23.9856,3237.0
24.0191,3199.0
24.0525,3273.0
24.0859,3275.0
24.1193,3246.0
24.1528,3158.0
24.1862,3208.0
24.2196,3259.0
24.253,3206.0
24.2864,3189.0
24.3199,3164.0
24.3533,3211.0
24.3867,3175.0
24.4201,3169.0
24.4536,3253.0
24.487,3143.0
24.5204,3176.0
24.5538,3168.0
24.5872,3075.0
24.6207,3109.0
24.6541,3088.0
24.6875,3159.0
24.7209,3088.0
24.7544,3042.0
24.7878,3048.0
24.8212,3081.0
24.8546,3155.0
24.888,3074.0
24.9215,2994.0
24.9549,3162.0
24.9883,3137.0
25.0217,3046.0
25.0552,3082.0
25.0886,3091.0
25.122,3092.0
25.1554,2917.0
25.1888,3025.0
25.2223,3109.0
25.2557,2998.0
25.2891,2931.0
25.3225,3115.0
25.356,3054.0
25.3894,3051.0
25.4228,3067.0
25.4562,3129.0
25.4897,3072.0
25.5231,3026.0
25.5565,2997.0
25.5899,3075.0
25.6233,3032.0
25.6568,2981.0
25.6902,3064.0
25.7236,2990.0
25.757,2930.0
25.7905,2961.0
25.8239,3077.0
25.8573,3021.0
25.8907,2994.0
25.9241,2923.0
25.9576,2948.0
25.991,2939.0
26.0244,3029.0
26.0578,3012.0
26.0913,2962.0
26.1247,2884.0
26.1581,2913.0
26.1915,3036.0
26.2249,2932.0
26.2584,2993.0
26.2918,3098.0
26.3252,3035.0
26.3586,3013.0
26.3921,3072.0
26.4255,3280.0
26.4589,3254.0
26.4923,3338.0
26.5258,3386.0
26.5592,3591.0
26.5926,3703.0
26.626,3729.0
26.6594,3956.0
26.6929,4186.0
26.7263,4434.0
26.7597,4282.0
26.7931,4164.0
26.8266,3945.0
26.86,3795.0
26.8934,3494.0
26.9268,3396.0
26.9602,3162.0
26.9937,3129.0
27.0271,3020.0
27.0605,2897.0
27.0939,2897.0
27.1274,2930.0
27.1608,2914.0
27.1942,2905.0
27.2276,2887.0
27.261,2853.0
27.2945,2855.0
27.3279,2752.0
27.3613,2852.0
27.3947,2841.0
27.4282,2802.0
27.4616,2773.0
27.495,2945.0
27.5284,2814.0
27.5618,2695.0
27.5953,2807.0
27.6287,2684.0
27.6621,2672.0
27.6955,2721.0
27.729,2649.0
27.7624,2716.0
27.7958,2662.0
27.8292,2715.0
27.8627,2633.0
27.8961,2742.0
27.9295,2685.0
27.9629,2739.0
27.9963,2728.0
28.0298,2666.0
28.0632,2619.0
28.0966,2617.0
28.13,2558.0
28.1635,2651.0
28.1969,2582.0
28.2303,2615.0
28.2637,2652.0
28.2971,2564.0
28.3306,2602.0
28.364,2638.0
28.3974,2645.0
28.4308,2634.0
28.4643,2582.0
28.4977,2579.0
28.5311,2612.0
28.5645,2580.0
28.5979,2548.0
28.6314,2549.0
28.6648,2644.0
28.6982,2631.0
28.7316,2608.0
28.7651,2542.0
28.7985,2571.0
28.8319,2506.0
28.8653,2650.0
28.8988,2665.0
28.9322,2590.0
28.9656,2550.0
28.999,2509.0
29.0324,2514.0
29.0659,2508.0
29.0993,2578.0
29.1327,2504.0
29.1661,2527.0
29.1996,2514.0
29.233,2517.0
29.2664,2491.0
29.2998,2548.0
29.3332,2480.0
29.3667,2496.0
29.4001,2521.0
29.4335,2390.0
29.4669,2456.0
29.5004,2417.0
29.5338,2489.0
29.5672,2533.0
29.6006,2539.0
29.634,2499.0
29.6675,2438.0
29.7009,2417.0
29.7343,2523.0
29.7677,2496.0
29.8012,2500.0
29.8346,2358.0
29.868,2455.0
29.9014,2433.0
29.9348,2506.0
29.9683,2485.0
30.0017,2543.0
30.0351,2416.0
30.0685,2458.0
30.102,2469.0
30.1354,2337.0
30.1688,2378.0
30.2022,2502.0
30.2357,2446.0
30.2691,2364.0
30.3025,2494.0
30.3359,2472.0
30.3693,2325.0
30.4028,2369.0
30.4362,2379.0
30.4696,2379.0
30.503,2404.0
30.5365,2447.0
30.5699,2409.0
30.6033,2396.0
30.6367,2448.0
30.6701,2429.0
30.7036,2369.0
30.737,2390.0
30.7704,2432.0
30.8038,2512.0
30.8373,2556.0
30.8707,2536.0
30.9041,2660.0
30.9375,2587.0
30.9709,2671.0
31.0044,2682.0
31.0378,2712.0
31.0712,2619.0
31.1046,2533.0
31.1381,2580.0
31.1715,2478.0
31.2049,2488.0
31.2383,2392.0
31.2718,2382.0
31.3052,2318.0
31.3386,2329.0
31.372,2301.0
31.4054,2299.0
31.4389,2358.0
31.4723,2355.0
31.5057,2299.0
31.5391,2248.0
31.5726,2210.0
31.606,2243.0
31.6394,2204.0
31.6728,2363.0
31.7062,2281.0
31.7397,2265.0
31.7731,2233.0
31.8065,2202.0
31.8399,2205.0
31.8734,2303.0
31.9068,2278.0
31.9402,2235.0
31.9736,2179.0
32.007,2215.0
32.0405,2206.0
32.0739,2290.0
32.1073,2168.0
32.1407,2119.0
32.1742,2218.0
32.2076,2239.0
32.241,2222.0
32.2744,2245.0
32.3078,2223.0
32.3413,2243.0
32.3747,2164.0
32.4081,2222.0
32.4415,2203.0
32.475,2148.0
32.5084,2150.0
32.5418,2194.0
32.5752,2052.0
32.6087,2235.0
32.6421,2162.0
32.6755,2260.0
32.7089,2061.0
32.7423,2125.0
32.7758,2220.0
32.8092,2190.0
32.8426,2181.0
32.876,2205.0
32.9095,2191.0
32.9429,2155.0
32.9763,2178.0
33.0097,2175.0
33.0431,2227.0
33.0766,2159.0
33.11,2148.0
33.1434,2182.0
33.1768,2236.0
33.2103,2117.0
33.2437,2229.0
33.2771,2162.0
33.3105,2276.0
33.3439,2123.0
33.3774,2087.0
33.4108,2188.0
33.4442,2244.0
33.4776,2204.0
33.5111,2151.0
33.5445,2138.0
33.5779,2095.0
33.6113,2188.0
33.6448,2184.0
33.6782,2210.0
33.7116,2086.0
33.745,2094.0
33.7784,2118.0
33.8119,2134.0
33.8453,2223.0
33.8787,2020.0
33.9121,2125.0
33.9456,2087.0
33.979,2208.0
34.0124,2145.0
34.0458,2118.0
34.0792,2047.0
34.1127,2164.0
34.1461,2138.0
34.1795,2168.0
34.2129,2049.0
34.2464,1983.0
34.2798,2091.0
34.3132,2094.0
34.3466,2179.0
34.38,2130.0
34.4135,2118.0
34.4469,2011.0
34.4803,2025.0
34.5137,2051.0
34.5472,1983.0
34.5806,2036.0
34.614,2079.0
34.6474,2115.0
34.6808,2133.0
34.7143,2029.0
34.7477,2080.0
34.7811,2130.0
34.8145,1986.0
34.848,2080.0
34.8814,1935.0
34.9148,2020.0
34.9482,2150.0
34.9817,1993.0
35.0151,1971.0
35.0485,2059.0
35.0819,2156.0
35.1153,2036.0
35.1488,1962.0
35.1822,2077.0
35.2156,2002.0
35.249,2011.0
35.2825,2021.0
35.3159,1974.0
35.3493,1994.0
35.3827,2069.0
35.4161,2053.0
35.4496,1972.0
35.483,2096.0
35.5164,2040.0
35.5498,1983.0
35.5833,2061.0
35.6167,2004.0
35.6501,2020.0
35.6835,2102.0
35.7169,2061.0
35.7504,2137.0
35.7838,2030.0
35.8172,2014.0
35.8506,2022.0
35.8841,1986.0
35.9175,2024.0
35.9509,1892.0
35.9843,2062.0
36.0178,2023.0
36.0512,2000.0
36.0846,1962.0
36.118,1944.0
36.1514,2051.0
36.1849,1987.0
36.2183,1880.0
36.2517,1875.0
36.2851,1985.0
36.3186,1999.0
36.352,1992.0
36.3854,1944.0
36.4188,1981.0
36.4522,2012.0
36.4857,1951.0
36.5191,1983.0
36.5525,1950.0
36.5859,1972.0
36.6194,1891.0
36.6528,1902.0
36.6862,1980.0
36.7196,2049.0
36.753,1911.0
36.7865,1934.0
36.8199,1941.0
36.8533,1946.0
36.8867,1942.0
36.9202,1874.0
36.9536,1945.0
36.987,1921.0
37.0204,1990.0
37.0538,1959.0
37.0873,1873.0
37.1207,2015.0
37.1541,1941.0
37.1875,1889.0
37.221,1908.0
37.2544,1975.0
37.2878,1878.0
37.3212,1958.0
37.3547,1888.0
37.3881,1934.0
37.4215,1933.0
37.4549,1935.0
37.4883,1982.0
37.5218,1927.0
37.5552,1962.0
37.5886,1928.0
37.622,1954.0
37.6555,1959.0
37.6889,2007.0
37.7223,1936.0
37.7557,1976.0
37.7891,1867.0
37.8226,1889.0
37.856,1962.0
37.8894,1915.0
37.9228,1928.0
37.9563,1934.0
37.9897,1841.0
38.0231,1894.0
38.0565,1861.0
38.0899,1892.0
38.1234,1884.0
38.1568,1881.0
38.1902,1877.0
38.2236,1973.0
38.2571,1894.0
38.2905,1908.0
38.3239,1884.0
38.3573,1899.0
38.3908,1928.0
38.4242,1924.0
38.4576,1883.0
38.491,1942.0
38.5244,1880.0
38.5579,1848.0
38.5913,1840.0
38.6247,1883.0
38.6581,1840.0
38.6916,1936.0
38.725,1834.0
38.7584,1835.0
38.7918,1856.0
38.8252,1852.0
38.8587,1866.0
38.8921,1821.0
38.9255,1901.0
38.9589,1839.0
38.9924,1845.0
39.0258,1891.0
39.0592,1810.0
39.0926,1817.0
39.126,1905.0
39.1595,1891.0
39.1929,1919.0
39.2263,1945.0
39.2597,1892.0
39.2932,1845.0
39.3266,1815.0
39.36,1832.0
39.3934,1876.0
39.4269,1805.0
39.4603,1990.0
39.4937,1864.0
39.5271,1852.0
39.5605,1913.0
39.594,1832.0
39.6274,1891.0
39.6608,1864.0
39.6942,1833.0
39.7277,1893.0
39.7611,1849.0
39.7945,1845.0
39.8279,1875.0
39.8613,1930.0
39.8948,1882.0
39.9282,1928.0
39.9616,1903.0
39.995,1799.0
40.0285,1836.0
40.0619,1897.0
40.0953,1854.0
40.1287,1862.0
40.1621,1911.0
40.1956,1854.0
40.229,1810.0
40.2624,1820.0
40.2958,1823.0
40.3293,1874.0
40.3627,1928.0
40.3961,1865.0
40.4295,1777.0
40.4629,1782.0
40.4964,1810.0
40.5298,1851.0
40.5632,1815.0
40.5966,1802.0
40.6301,1856.0
40.6635,1952.0
40.6969,1768.0
40.7303,1811.0
40.7638,1788.0
40.7972,1768.0
40.8306,1801.0
40.864,1797.0
40.8974,1810.0
40.9309,1873.0
40.9643,1791.0
40.9977,1924.0
41.0311,1864.0
41.0646,1849.0
41.098,1771.0
41.1314,1856.0
41.1648,1842.0
41.1982,1819.0
41.2317,1791.0
41.2651,1835.0
41.2985,1861.0
41.3319,1849.0
41.3654,1821.0
41.3988,1810.0
41.4322,1785.0
41.4656,1783.0
41.499,1757.0
41.5325,1760.0
41.5659,1850.0
41.5993,1804.0
41.6327,1845.0
41.6662,1764.0
41.6996,1812.0
41.733,1800.0
41.7664,1793.0
41.7999,1879.0
41.8333,1868.0
41.8667,1818.0
41.9001,1812.0
41.9335,1783.0
41.967,1694.0
42.0004,1749.0
42.0338,1890.0
42.0672,1918.0
42.1007,1867.0
42.1341,1763.0
42.1675,1910.0
42.2009,1776.0
42.2343,1791.0
42.2678,1810.0
42.3012,1778.0
42.3346,1821.0
42.368,1846.0
42.4015,1816.0
42.4349,1814.0
42.4683,1886.0
42.5017,1856.0
42.5351,1797.0
42.5686,1902.0
42.602,1823.0
42.6354,1843.0
42.6688,1851.0
42.7023,1877.0
42.7357,1798.0
42.7691,1884.0
42.8025,1948.0
42.8359,1851.0
42.8694,1909.0
42.9028,1887.0
42.9362,1862.0
42.9696,1892.0
43.0031,1911.0
43.0365,1819.0
43.0699,1935.0
43.1033,1858.0
43.1368,1867.0
43.1702,1940.0
43.2036,1948.0
43.237,1911.0
43.2704,1890.0
43.3039,1827.0
43.3373,1974.0
43.3707,1897.0
43.4041,1957.0
43.4376,1899.0
43.471,1935.0
43.5044,1864.0
43.5378,1872.0
43.5712,1928.0
43.6047,1892.0
43.6381,1870.0
43.6715,1917.0
43.7049,1901.0
43.7384,1892.0
43.7718,1952.0
43.8052,1904.0
43.8386,1971.0
43.872,2023.0
43.9055,1966.0
43.9389,1959.0
43.9723,2055.0
44.0057,2114.0
44.0392,2132.0
44.0726,2240.0
44.106,2256.0
44.1394,2444.0
44.1729,2698.0
44.2063,3068.0
44.2397,3228.0
44.2731,3969.0
44.3065,4810.0
44.34,5688.0
44.3734,6714.0
44.4068,7215.0
44.4402,7090.0
44.4737,6764.0
44.5071,6250.0
44.5405,5476.0
44.5739,4829.0
44.6073,4167.0
44.6408,3484.0
44.6742,3219.0
44.7076,2855.0
44.741,2584.0
44.7745,2465.0
44.8079,2381.0
44.8413,2210.0
44.8747,2029.0
44.9081,2083.0
44.9416,1987.0
44.975,1954.0
45.0084,1934.0
45.0418,1926.0
45.0753,1867.0
45.1087,1773.0
45.1421,1842.0
45.1755,1848.0
45.2089,1826.0
45.2424,1780.0
45.2758,1816.0
45.3092,1836.0
45.3426,1804.0
45.3761,1748.0
45.4095,1782.0
45.4429,1748.0
45.4763,1796.0
45.5098,1798.0
45.5432,1817.0
45.5766,1740.0
45.61,1709.0
45.6434,1860.0
45.6769,1765.0
45.7103,1754.0
45.7437,1758.0
45.7771,1755.0
45.8106,1793.0
45.844,1787.0
45.8774,1686.0
45.9108,1747.0
45.9442,1763.0
45.9777,1728.0
46.0111,1846.0
46.0445,1720.0
46.0779,1745.0
46.1114,1733.0
46.1448,1694.0
46.1782,1748.0
46.2116,1755.0
46.245,1749.0
46.2785,1796.0
46.3119,1799.0
46.3453,1771.0
46.3787,1755.0
46.4122,1707.0
46.4456,1692.0
46.479,1769.0
46.5124,1749.0
46.5459,1748.0
46.5793,1693.0
46.6127,1642.0
46.6461,1657.0
46.6795,1735.0
46.713,1693.0
46.7464,1714.0
46.7798,1674.0
46.8132,1628.0
46.8467,1632.0
46.8801,1730.0
46.9135,1647.0
46.9469,1799.0
46.9803,1769.0
47.0138,1683.0
47.0472,1762.0
47.0806,1719.0
47.114,1774.0
47.1475,1735.0
47.1809,1744.0
47.2143,1717.0
47.2477,1687.0
47.2811,1758.0
47.3146,1625.0
47.348,1732.0
47.3814,1729.0
47.4148,1763.0
47.4483,1755.0
47.4817,1767.0
47.5151,1621.0
47.5485,1725.0
47.5819,1746.0
47.6154,1721.0
47.6488,1715.0
47.6822,1740.0
47.7156,1708.0
47.7491,1720.0
47.7825,1724.0
47.8159,1744.0
47.8493,1734.0
47.8828,1746.0
47.9162,1717.0
47.9496,1672.0
47.983,1710.0
48.0164,1742.0
48.0499,1687.0
48.0833,1703.0
48.1167,1713.0
48.1501,1634.0
48.1836,1738.0
48.217,1780.0
48.2504,1770.0
48.2838,1744.0
48.3172,1678.0
48.3507,1744.0
48.3841,1737.0
48.4175,1702.0
48.4509,1648.0
48.4844,1719.0
48.5178,1664.0
48.5512,1682.0
48.5846,1635.0
48.618,1698.0
48.6515,1631.0
48.6849,1708.0
48.7183,1724.0
48.7517,1664.0
48.7852,1657.0
48.8186,1662.0
48.852,1736.0
48.8854,1745.0
48.9189,1763.0
48.9523,1723.0
48.9857,1703.0
49.0191,1642.0
49.0525,1711.0
49.086,1678.0
49.1194,1673.0
49.1528,1689.0
49.1862,1699.0
49.2197,1640.0
49.2531,1701.0
49.2865,1643.0
49.3199,1688.0
49.3533,1726.0
49.3868,1678.0
49.4202,1686.0
49.4536,1650.0
49.487,1608.0
49.5205,1716.0
49.5539,1721.0
49.5873,1690.0
49.6207,1594.0
49.6541,1655.0
49.6876,1739.0
49.721,1714.0
49.7544,1677.0
49.7878,1686.0
49.8213,1772.0
49.8547,1744.0
49.8881,1660.0
49.9215,1740.0
49.9549,1651.0
49.9884,1685.0
50.0218,1664.0
50.0552,1754.0
50.0886,1688.0
50.1221,1741.0
50.1555,1671.0
50.1889,1658.0
50.2223,1707.0
50.2558,1701.0
50.2892,1663.0
50.3226,1794.0
50.356,1691.0
50.3894,1624.0
50.4229,1723.0
50.4563,1682.0
50.4897,1744.0
50.5231,1664.0
50.5566,1640.0
50.59,1615.0
50.6234,1781.0
50.6568,1663.0
50.6902,1748.0
50.7237,1707.0
50.7571,1635.0
50.7905,1692.0
50.8239,1725.0
50.8574,1766.0
50.8908,1681.0
50.9242,1716.0
50.9576,1671.0
50.991,1660.0
51.0245,1639.0
51.0579,1675.0
51.0913,1635.0
51.1247,1725.0
51.1582,1734.0
51.1916,1737.0
51.225,1766.0
51.2584,1641.0
51.2919,1627.0
51.3253,1692.0
51.3587,1688.0
51.3921,1717.0
51.4255,1728.0
51.459,1651.0
51.4924,1734.0
51.5258,1716.0
51.5592,1688.0
51.5927,1581.0
51.6261,1749.0
51.6595,1730.0
51.6929,1703.0
51.7263,1728.0
51.7598,1681.0
51.7932,1629.0
51.8266,1742.0
51.86,1630.0
51.8935,1796.0
51.9269,1700.0
51.9603,1645.0
51.9937,1704.0
52.0271,1700.0
52.0606,1749.0
52.094,1754.0
52.1274,1731.0
52.1608,1702.0
52.1943,1666.0
52.2277,1758.0
52.2611,1674.0
52.2945,1684.0
52.3279,1803.0
52.3614,1678.0
52.3948,1693.0
52.4282,1737.0
52.4616,1828.0
52.4951,1777.0
52.5285,1663.0
52.5619,1793.0
52.5953,1737.0
52.6288,1883.0
52.6622,1887.0
52.6956,1897.0
52.729,1938.0
52.7624,1976.0
52.7959,1904.0
52.8293,1936.0
52.8627,2053.0
52.8961,2091.0
52.9296,2078.0
52.963,2128.0
52.9964,2030.0
53.0298,1944.0
53.0632,1894.0
53.0967,1825.0
53.1301,1846.0
53.1635,1858.0
53.1969,1796.0
53.2304,1779.0
53.2638,1801.0
53.2972,1735.0
53.3306,1690.0
53.364,1729.0
53.3975,1720.0
53.4309,1682.0
53.4643,1726.0
53.4977,1761.0
53.5312,1606.0
53.5646,1705.0
53.598,1713.0
53.6314,1723.0
53.6649,1751.0
53.6983,1748.0
53.7317,1702.0
53.7651,1675.0
53.7985,1723.0
53.832,1694.0
53.8654,1782.0
53.8988,1703.0
53.9322,1637.0
53.9657,1677.0
53.9991,1689.0
54.0325,1620.0
54.0659,1651.0
54.0993,1655.0
54.1328,1657.0
54.1662,1687.0
54.1996,1686.0
54.233,1669.0
54.2665,1688.0
54.2999,1671.0
54.3333,1685.0
54.3667,1609.0
54.4001,1714.0
54.4336,1648.0
54.467,1724.0
54.5004,1702.0
54.5338,1692.0
54.5673,1636.0
54.6007,1663.0
54.6341,1611.0
54.6675,1684.0
54.701,1625.0
54.7344,1740.0
54.7678,1693.0
54.8012,1667.0
54.8346,1634.0
54.8681,1650.0
54.9015,1646.0
54.9349,1578.0
54.9683,1747.0
55.0018,1667.0
55.0352,1686.0
55.0686,1611.0
55.102,1642.0
55.1354,1567.0
55.1689,1619.0
55.2023,1661.0
55.2357,1718.0
55.2691,1716.0
55.3026,1695.0
55.336,1725.0
55.3694,1658.0
55.4028,1690.0
55.4362,1721.0
55.4697,1800.0
55.5031,1704.0
55.5365,1763.0
55.5699,1660.0
55.6034,1689.0
55.6368,1666.0
55.6702,1693.0
55.7036,1687.0
55.737,1632.0
55.7705,1714.0
55.8039,1666.0
55.8373,1613.0
55.8707,1676.0
55.9042,1603.0
55.9376,1677.0
55.971,1724.0
56.0044,1588.0
56.0379,1632.0
56.0713,1676.0
56.1047,1645.0
56.1381,1671.0
56.1715,1658.0
56.205,1622.0
56.2384,1634.0
56.2718,1714.0
56.3052,1688.0
56.3387,1688.0
56.3721,1698.0
56.4055,1693.0
56.4389,1707.0
56.4723,1630.0
56.5058,1689.0
56.5392,1658.0
56.5726,1652.0
56.606,1714.0
56.6395,1672.0
56.6729,1622.0
56.7063,1619.0
56.7397,1577.0
56.7731,1749.0
56.8066,1636.0
56.84,1715.0
56.8734,1656.0
56.9068,1596.0
56.9403,1658.0
56.9737,1684.0
57.0071,1636.0
57.0405,1682.0
57.074,1667.0
57.1074,1688.0
57.1408,1597.0
57.1742,1632.0
57.2076,1614.0
57.2411,1684.0
57.2745,1599.0
57.3079,1583.0
57.3413,1608.0
57.3748,1640.0
57.4082,1683.0
57.4416,1732.0
57.475,1648.0
57.5084,1613.0
57.5419,1596.0
57.5753,1568.0
57.6087,1614.0
57.6421,1661.0
57.6756,1635.0
57.709,1597.0
57.7424,1614.0
57.7758,1726.0
57.8092,1657.0
57.8427,1636.0
57.8761,1641.0
57.9095,1594.0
57.9429,1597.0
57.9764,1670.0
58.0098,1584.0
58.0432,1672.0
58.0766,1567.0
58.11,1651.0
58.1435,1644.0
58.1769,1628.0
58.2103,1504.0
58.2437,1709.0
58.2772,1628.0
58.3106,1624.0
58.344,1648.0
58.3774,1672.0
58.4109,1664.0
58.4443,1678.0
58.4777,1698.0
58.5111,1599.0
58.5445,1563.0
58.578,1620.0
58.6114,1588.0
58.6448,1687.0
58.6782,1598.0
58.7117,1588.0
58.7451,1652.0
58.7785,1614.0
58.8119,1657.0
58.8453,1667.0
58.8788,1637.0
58.9122,1677.0
58.9456,1643.0
58.979,1557.0
59.0125,1646.0
59.0459,1624.0
59.0793,1629.0
59.1127,1626.0
59.1461,1566.0
59.1796,1626.0
59.213,1657.0
59.2464,1677.0
59.2798,1654.0
59.3133,1611.0
59.3467,1521.0
59.3801,1627.0
59.4135,1576.0
59.447,1666.0
59.4804,1667.0
59.5138,1670.0
59.5472,1621.0
59.5806,1655.0
59.6141,1657.0
59.6475,1658.0
59.6809,1681.0
59.7143,1593.0
59.7478,1652.0
59.7812,1576.0
59.8146,1643.0
59.848,1714.0
59.8814,1609.0
59.9149,1616.0
59.9483,1579.0
59.9817,1599.0
60.0151,1613.0
60.0486,1613.0
60.082,1590.0
60.1154,1600.0
60.1488,1667.0
60.1822,1569.0
60.2157,1572.0
60.2491,1625.0
60.2825,1661.0
60.3159,1620.0
60.3494,1614.0
60.3828,1573.0
60.4162,1584.0
60.4496,1593.0
60.483,1646.0
60.5165,1651.0
60.5499,1749.0
60.5833,1663.0
60.6167,1598.0
60.6502,1498.0
60.6836,1620.0
60.717,1643.0
60.7504,1624.0
60.7839,1588.0
60.8173,1628.0
60.8507,1656.0
60.8841,1627.0
60.9175,1609.0
60.951,1603.0
60.9844,1614.0
61.0178,1560.0
61.0512,1608.0
61.0847,1599.0
61.1181,1589.0
61.1515,1646.0
61.1849,1714.0
61.2183,1616.0
61.2518,1563.0
61.2852,1622.0
61.3186,1598.0
61.352,1646.0
61.3855,1609.0
61.4189,1659.0
61.4523,1629.0
61.4857,1627.0
61.5191,1651.0
61.5526,1556.0
61.586,1672.0
61.6194,1643.0
61.6528,1626.0
61.6863,1619.0
61.7197,1610.0
61.7531,1643.0
61.7865,1643.0
61.82,1576.0
61.8534,1659.0
61.8868,1598.0
61.9202,1678.0
61.9536,1673.0
61.9871,1638.0
62.0205,1575.0
62.0539,1688.0
62.0873,1639.0
62.1208,1603.0
62.1542,1581.0
62.1876,1654.0
62.221,1550.0
62.2544,1653.0
62.2879,1638.0
62.3213,1623.0
62.3547,1625.0
62.3881,1560.0
62.4216,1632.0
62.455,1624.0
62.4884,1657.0
62.5218,1659.0
62.5552,1613.0
62.5887,1796.0
62.6221,1671.0
62.6555,1575.0
62.6889,1689.0
62.7224,1715.0
62.7558,1553.0
62.7892,1600.0
62.8226,1628.0
62.856,1626.0
62.8895,1560.0
62.9229,1668.0
62.9563,1604.0
62.9897,1677.0
63.0232,1591.0
63.0566,1624.0
63.09,1611.0
63.1234,1635.0
63.1569,1647.0
63.1903,1551.0
63.2237,1700.0
63.2571,1612.0
63.2905,1750.0
63.324,1664.0
63.3574,1615.0
63.3908,1615.0
63.4242,1574.0
63.4577,1639.0
63.4911,1638.0
63.5245,1637.0
63.5579,1594.0
63.5913,1515.0
63.6248,1673.0
63.6582,1614.0
63.6916,1611.0
63.725,1658.0
63.7585,1648.0
63.7919,1663.0
63.8253,1642.0
63.8587,1675.0
63.8921,1640.0
63.9256,1585.0
63.959,1703.0
63.9924,1629.0
64.0258,1670.0
64.0593,1625.0
64.0927,1662.0
64.1261,1611.0
64.1595,1627.0
64.193,1637.0
64.2264,1654.0
64.2598,1634.0
64.2932,1704.0
64.3266,1690.0
64.3601,1663.0
64.3935,1701.0
64.4269,1659.0
64.4603,1744.0
64.4938,1699.0
64.5272,1819.0
64.5606,1859.0
64.594,1884.0
64.6274,1891.0
64.6609,2003.0
64.6943,1990.0
64.7277,2087.0
64.7611,2128.0
64.7946,2093.0
64.828,2062.0
64.8614,2107.0
64.8948,2115.0
64.9282,2111.0
64.9617,2051.0
64.9951,1926.0
65.0285,1941.0
65.0619,1856.0
65.0954,1824.0
65.1288,1818.0
65.1622,1798.0
65.1956,1684.0
65.229,1763.0
65.2625,1817.0
65.2959,1697.0
65.3293,1752.0
65.3627,1676.0
65.3962,1684.0
65.4296,1686.0
65.463,1751.0
65.4964,1694.0
65.5299,1646.0
65.5633,1699.0
65.5967,1601.0
65.6301,1647.0
65.6635,1579.0
65.697,1519.0
65.7304,1558.0
65.7638,1642.0
65.7972,1698.0
65.8307,1650.0
65.8641,1656.0
65.8975,1628.0
65.9309,1606.0
65.9643,1597.0
65.9978,1617.0
66.0312,1562.0
66.0646,1584.0
66.098,1572.0
66.1315,1550.0
66.1649,1646.0
66.1983,1598.0
66.2317,1626.0
66.2651,1584.0
66.2986,1615.0
66.332,1545.0
66.3654,1738.0
66.3988,1571.0
66.4323,1632.0
66.4657,1636.0
66.4991,1630.0
66.5325,1647.0
66.566,1647.0
66.5994,1676.0
66.6328,1620.0
66.6662,1597.0
66.6996,1661.0
66.7331,1645.0
66.7665,1525.0
66.7999,1588.0
66.8333,1604.0
66.8668,1610.0
66.9002,1617.0
66.9336,1634.0
66.967,1690.0
67.0004,1578.0
67.0339,1635.0
67.0673,1647.0
67.1007,1610.0
67.1341,1637.0
67.1676,1581.0
67.201,1585.0
67.2344,1657.0
67.2678,1621.0
67.3012,1613.0
67.3347,1587.0
67.3681,1585.0
67.4015,1674.0
67.4349,1543.0
67.4684,1610.0
67.5018,1641.0
67.5352,1598.0
67.5686,1604.0
67.602,1674.0
67.6355,1573.0
67.6689,1579.0
67.7023,1573.0
67.7357,1637.0
67.7692,1622.0
67.8026,1623.0
67.836,1626.0
67.8694,1571.0
67.9029,1669.0
67.9363,1533.0
67.9697,1595.0
68.0031,1593.0
68.0365,1689.0
68.07,1606.0
68.1034,1543.0
68.1368,1591.0
68.1702,1553.0
68.2037,1641.0
68.2371,1608.0
68.2705,1670.0
68.3039,1576.0
68.3373,1540.0
68.3708,1571.0
68.4042,1646.0
68.4376,1608.0
68.471,1579.0
68.5045,1627.0
68.5379,1682.0
68.5713,1642.0
68.6047,1694.0
68.6381,1643.0
68.6716,1598.0
68.705,1639.0
68.7384,1595.0
68.7718,1607.0
68.8053,1595.0
68.8387,1644.0
68.8721,1627.0
68.9055,1544.0
68.939,1561.0
68.9724,1631.0
69.0058,1624.0
69.0392,1648.0
69.0726,1612.0
69.1061,1661.0
69.1395,1524.0
69.1729,1643.0
69.2063,1622.0
69.2398,1629.0
69.2732,1551.0
69.3066,1638.0
69.34,1595.0
69.3734,1574.0
69.4069,1575.0
69.4403,1561.0
69.4737,1628.0
69.5071,1606.0
69.5406,1584.0
69.574,1518.0
69.6074,1606.0
69.6408,1608.0
69.6742,1565.0
69.7077,1678.0
69.7411,1583.0
69.7745,1583.0
69.8079,1624.0
69.8414,1622.0
69.8748,1681.0
69.9082,1599.0
69.9416,1575.0
69.975,1629.0
69.9918,1634.0